acc_x,acc_y,acc_z,gyro_x,gyro_y,gyro_z
-0.5230712890625,-0.018798828125,0.76318359375,-2.7786259541984735,0.5267175572519084,0.4580152671755725
-0.525390625,-0.02587890625,0.7587890625,-2.8473282442748094,-0.37404580152671757,0.5267175572519084
-0.433349609375,-0.07275390625,0.8060302734375,10.488549618320612,-42.66412213740458,-21.16793893129771
-0.509033203125,-0.0013427734375,0.78955078125,16.053435114503817,-16.129770992366414,-34.9236641221374
-0.6171875,-0.3455810546875,0.809326171875,29.33587786259542,49.656488549618324,-4.259541984732825
-0.5435791015625,-0.14111328125,0.7672119140625,-82.99236641221374,20.732824427480917,79.59541984732824
-0.6612548828125,-0.1385498046875,1.1046142578125,-153.45038167938932,-134.45038167938932,42.89312977099237
-0.3997802734375,-0.6336669921875,0.9912109375,45.99236641221374,-224.03053435114504,36.51908396946565
-0.0084228515625,-0.0916748046875,0.7508544921875,19.328244274809162,-209.51908396946564,138.4732824427481
0.056640625,-0.0921630859375,0.800537109375,-58.55725190839695,-140.9083969465649,26.603053435114504
0.7257080078125,0.1990966796875,0.989013671875,-133.23664122137404,-8.404580152671755,-156.4198473282443
0.4471435546875,-0.174072265625,0.8997802734375,-58.83206106870229,-33.68702290076336,-84.87786259541984
0.39013671875,-0.2681884765625,0.7603759765625,-5.061068702290076,15.793893129770993,-64.46564885496183
0.199951171875,-0.06689453125,0.890625,40.16793893129771,74.47328244274809,-13.465648854961833
0.2186279296875,-0.157470703125,0.60546875,-26.022900763358777,41.88549618320611,2.3282442748091605
0.193115234375,-0.1640625,0.6712646484375,-14.86259541984733,11.65648854961832,-38.038167938931295
0.157470703125,-0.1927490234375,0.8314208984375,-10.709923664122137,16.114503816793892,-14.244274809160306
0.15869140625,-0.0955810546875,0.882568359375,-10.625954198473282,4.320610687022901,-5.221374045801527
0.2181396484375,-0.064208984375,0.758544921875,-5.297709923664122,14.32824427480916,0.3435114503816794
0.118408203125,-0.094482421875,0.5640869140625,22.442748091603054,27.244274809160306,17.740458015267176
0.0518798828125,0.010498046875,0.30908203125,44.595419847328245,91.25954198473282,25.30534351145038
-0.3363037109375,0.14892578125,0.8028564453125,29.9618320610687,151.12977099236642,22.106870229007633
-0.8433837890625,-0.0098876953125,1.7108154296875,26.114503816793892,89.70229007633588,10.259541984732824
-0.6846923828125,0.1217041015625,1.1702880859375,-4.396946564885496,-5.0458015267175576,-0.3282442748091603
-0.419189453125,0.00146484375,0.7581787109375,6.748091603053435,-2.5877862595419847,4.885496183206107
-0.4022216796875,0.0343017578125,0.738037109375,-1.3511450381679388,-6.145038167938932,4.801526717557252
-0.46826171875,0.051513671875,0.894287109375,15.870229007633588,-0.5419847328244275,6.0458015267175576
-0.5634765625,0.140380859375,1.2874755859375,9.992366412213741,-41.656488549618324,-17.16030534351145
-0.6180419921875,0.1580810546875,1.0902099609375,-32.57251908396947,-6.343511450381679,21.358778625954198
-0.32861328125,0.0010986328125,0.9163818359375,-11.221374045801527,-45.099236641221374,-3.7251908396946565
-0.3123779296875,-0.098388671875,0.8975830078125,0.6717557251908397,-73.94656488549619,-23.412213740458014
-0.1109619140625,-0.0174560546875,0.7110595703125,-4.7251908396946565,-26.366412213740457,-21.717557251908396
0.0621337890625,-0.081298828125,0.637939453125,-28.557251908396946,-35.12977099236641,-15.106870229007633
0.0902099609375,-0.294921875,0.8248291015625,-24.46564885496183,4.534351145038168,-10.229007633587786
0.06982421875,-0.178466796875,0.9268798828125,0.6717557251908397,-8.687022900763358,0.37404580152671757
0.0673828125,-0.1396484375,0.943603515625,-9.893129770992367,-2.6946564885496183,-5.938931297709924
0.03564453125,-0.136474609375,0.9224853515625,-10.259541984732824,-10.603053435114504,-3.3587786259541983
0.1512451171875,-0.1746826171875,0.72314453125,-7.694656488549619,-5.320610687022901,-0.7099236641221374
0.169677734375,-0.156982421875,0.6632080078125,-1.5648854961832062,16.96946564885496,1.9465648854961832
0.1646728515625,-0.1331787109375,0.4739990234375,45.67175572519084,27.770992366412212,20.610687022900763
-0.01806640625,0.016845703125,0.5096435546875,12.816793893129772,60.404580152671755,-3.801526717557252
-0.4769287109375,0.326904296875,0.8353271484375,-9.740458015267176,106.05343511450381,-3.7938931297709924
-0.412841796875,0.0758056640625,0.9215087890625,26.66412213740458,83.08396946564885,21.900763358778626
-1.0487060546875,0.130126953125,1.921875,1.7557251908396947,14.885496183206106,15.122137404580153
-0.5572509765625,0.0946044921875,0.881591796875,-17.0381679389313,-47.06106870229008,10.221374045801527
-0.2923583984375,0.0421142578125,0.5333251953125,-0.366412213740458,-18.328244274809162,8.793893129770993
-0.3612060546875,0.0125732421875,0.753662109375,3.5801526717557253,6.564885496183206,0.04580152671755725
-0.5736083984375,0.0272216796875,1.28076171875,-7.557251908396947,11.183206106870228,-11.908396946564885
-0.625,0.04931640625,1.193359375,-30.801526717557252,-46.61068702290076,-15.893129770992367
-0.4345703125,-0.1739501953125,0.9376220703125,-8.923664122137405,-51.152671755725194,-11.641221374045802
-0.20947265625,-0.0709228515625,0.91455078125,18.84732824427481,-75.09923664122137,-6.435114503816794
0.0145263671875,-0.099365234375,0.70751953125,-8.50381679389313,-71.20610687022901,-24.977099236641223
0.124755859375,-0.167724609375,0.587158203125,-13.19083969465649,-28.740458015267176,-5.061068702290076
0.212158203125,-0.216064453125,0.7061767578125,-11.687022900763358,-12.106870229007633,-8.793893129770993
0.1988525390625,-0.16845703125,0.7979736328125,-5.801526717557252,-4.206106870229007,-1.83206106870229
0.1419677734375,-0.18408203125,0.92041015625,-3.2900763358778624,3.33587786259542,-1.5801526717557253
0.1671142578125,-0.195068359375,0.9046630859375,-3.3053435114503817,4.2748091603053435,-0.2366412213740458
0.153076171875,-0.169189453125,0.8861083984375,-1.213740458015267,2.0763358778625953,0.48091603053435117
0.13818359375,-0.1512451171875,0.7823486328125,2.1297709923664123,3.8396946564885495,-3.5572519083969465
0.146484375,-0.1192626953125,0.6439208984375,13.557251908396946,25.748091603053435,15.061068702290076
0.023193359375,-0.1422119140625,0.5648193359375,28.244274809160306,43.3206106870229,30.022900763358777
-0.1868896484375,-0.146728515625,0.532958984375,27.114503816793892,70.6793893129771,36.98473282442748
-0.4176025390625,0.051513671875,0.802490234375,34.091603053435115,123.06106870229007,-8.259541984732824
-0.7591552734375,0.26123046875,1.1632080078125,13.67175572519084,65.8854961832061,-2.183206106870229
-0.7252197265625,0.056884765625,1.277587890625,14.442748091603054,35.083969465648856,5.33587786259542
-0.6566162109375,0.0406494140625,0.909912109375,2.7404580152671754,-21.49618320610687,11.305343511450381
-0.5057373046875,0.0517578125,0.6859130859375,-1.6106870229007633,-13.091603053435115,1.0458015267175573
-0.4871826171875,0.091796875,0.732666015625,-0.08396946564885496,-8.129770992366412,-0.7633587786259542
-0.6636962890625,0.2047119140625,1.138427734375,-7.198473282442748,-17.48854961832061,0.07633587786259542
-0.627197265625,0.143798828125,1.1495361328125,-16.114503816793892,-67.16030534351145,14.030534351145038
-0.3775634765625,-0.0086669921875,0.927734375,-42.18320610687023,-55.93129770992366,9.419847328244275
-0.2047119140625,-0.1544189453125,0.874267578125,-24.64885496183206,-60.7557251908397,-19.00763358778626
-0.105224609375,-0.034912109375,0.7427978515625,-10.961832061068701,-81.2824427480916,-11.022900763358779
0.083984375,0.050537109375,0.4573974609375,-11.923664122137405,-43.786259541984734,-14.732824427480915
0.1953125,-0.2017822265625,0.68505859375,-15.709923664122137,-8.618320610687023,-9.106870229007633
0.1787109375,-0.191650390625,0.814697265625,-12.297709923664122,11.977099236641221,-8.129770992366412
0.09033203125,-0.1824951171875,0.921630859375,1.465648854961832,9.748091603053435,0.4351145038167939
0.07080078125,-0.1688232421875,0.9215087890625,5.206106870229007,6.564885496183206,2.7480916030534353
0.079345703125,-0.170166015625,0.8681640625,6.977099236641221,8.19083969465649,2.3740458015267176
0.107666015625,-0.0828857421875,0.6693115234375,21.31297709923664,11.17557251908397,14.274809160305344
0.1448974609375,-0.0115966796875,0.503173828125,45.458015267175576,30.374045801526716,19.27480916030534
-0.0997314453125,0.1343994140625,0.4114990234375,29.236641221374047,59.99236641221374,2.4198473282442747
-0.43701171875,0.275390625,1.03076171875,44.17557251908397,86.34351145038168,27.19083969465649
-0.6337890625,0.2723388671875,1.5242919921875,28.801526717557252,63.06106870229008,1.8244274809160306
-0.49365234375,0.268798828125,1.10546875,0.916030534351145,7.061068702290076,4.091603053435114
-0.43212890625,0.137451171875,0.8355712890625,-5.480916030534351,-9.221374045801527,1.4885496183206106
-0.4385986328125,0.20166015625,0.78564453125,7.297709923664122,-8.061068702290076,-0.6030534351145038
-0.3702392578125,0.2064208984375,0.776123046875,4.9541984732824424,-11.374045801526718,-15.030534351145038
-0.5399169921875,0.2130126953125,1.174072265625,-53.74045801526717,-30.61832061068702,-14.358778625954198
-0.4163818359375,0.13427734375,0.811767578125,-1.3969465648854962,16.244274809160306,6.603053435114504
-0.3868408203125,-0.02001953125,0.9595947265625,-21.015267175572518,-33.70229007633588,-11.98473282442748
-0.459716796875,0.12841796875,1.0025634765625,-38.6793893129771,-65.67175572519083,-10.290076335877863
-0.136962890625,-0.0245361328125,0.7435302734375,0.9312977099236641,-69.25190839694656,-2.366412213740458
-0.12890625,-0.0928955078125,0.792724609375,-12.86259541984733,-53.63358778625954,1.183206106870229
0.0777587890625,-0.03662109375,0.6234130859375,-23.580152671755727,-42.030534351145036,-4.1603053435114505
0.14453125,-0.132568359375,0.783203125,-6.083969465648855,-0.40458015267175573,-3.267175572519084
0.1451416015625,-0.06787109375,0.8402099609375,-4.137404580152672,3.786259541984733,-3.954198473282443
0.11474609375,-0.07763671875,0.8826904296875,4.702290076335878,11.404580152671755,3.2290076335877864
0.087646484375,-0.034912109375,0.88916015625,21.419847328244273,5.091603053435114,-10.954198473282442
0.0902099609375,0.015625,0.7388916015625,5.1603053435114505,2.312977099236641,11.870229007633588
0.0968017578125,-0.0294189453125,0.6282958984375,45.030534351145036,14.030534351145038,17.977099236641223
0.0289306640625,0.1998291015625,0.52197265625,45.274809160305345,42.58015267175573,-27.519083969465647
-0.2530517578125,0.271728515625,0.70751953125,25.076335877862597,63.06106870229008,-49.16793893129771
-0.6146240234375,0.4312744140625,1.1190185546875,-43.786259541984734,40.55725190839695,-48.94656488549618
-0.6558837890625,0.2857666015625,1.1424560546875,7.404580152671755,32.56488549618321,1.1374045801526718
-0.5533447265625,0.1826171875,0.9654541015625,-1.213740458015267,3.3282442748091605,9.900763358778626
-0.4925537109375,0.17333984375,0.8162841796875,8.297709923664122,7.190839694656488,17.450381679389313
-0.493896484375,0.1676025390625,0.8250732421875,3.3969465648854964,1.5877862595419847,6.358778625954199
-0.540771484375,0.2415771484375,0.9486083984375,-5.282442748091603,-19.61832061068702,6.717557251908397
-0.488525390625,0.307861328125,0.9981689453125,-32.49618320610687,-24.328244274809162,4.534351145038168
-0.361572265625,0.42138671875,1.131591796875,11.732824427480915,-83.74045801526718,16.53435114503817
-0.321044921875,0.33056640625,1.03759765625,-46.85496183206107,-68.03053435114504,2.3740458015267176
-0.045166015625,0.1461181640625,0.79052734375,-46.87022900763359,-68.64885496183206,21.114503816793892
0.096923828125,-0.0333251953125,0.6551513671875,-27.84732824427481,-30.045801526717558,1.2061068702290076
0.2386474609375,-0.085205078125,0.4879150390625,26.908396946564885,-67.08396946564885,14.229007633587786
0.2252197265625,0.0152587890625,0.822265625,-124.89312977099236,71.18320610687023,21.458015267175572
0.15234375,-0.0355224609375,0.88232421875,-25.374045801526716,4.465648854961832,-11.961832061068701
0.1998291015625,0.0093994140625,0.8529052734375,9.396946564885496,-11.67175572519084,-3.4122137404580153
0.2144775390625,-0.0306396484375,0.8489990234375,-25.015267175572518,-65.87786259541984,3.9160305343511452
0.227294921875,-0.0394287109375,0.6253662109375,42.603053435114504,-19.61832061068702,44.916030534351144
0.0550537109375,-0.088623046875,0.667724609375,103.6412213740458,131.4351145038168,84.23664122137404
-0.0614013671875,0.0230712890625,0.904541015625,70.04580152671755,23.931297709923665,9.564885496183207
-0.00146484375,0.280029296875,1.0203857421875,81.90076335877863,53.3587786259542,-5.793893129770993
-0.181884765625,0.356201171875,1.00146484375,0.22137404580152673,67.12213740458016,-23.427480916030536
-0.3194580078125,0.310791015625,1.0494384765625,-66.98473282442748,39.969465648854964,-22.557251908396946
-0.37158203125,0.2056884765625,1.087158203125,-60.41984732824427,65.94656488549619,-28.427480916030536
-0.1842041015625,-0.0023193359375,0.9495849609375,-84.32824427480917,-36.47328244274809,11.900763358778626
-0.215087890625,0.06884765625,0.8973388671875,-197.3053435114504,-83.32824427480917,15.49618320610687
-0.1256103515625,-0.020751953125,0.8638916015625,4.984732824427481,48.587786259541986,18.045801526717558
-0.1405029296875,0.012451171875,1.102783203125,123.12213740458016,-36.465648854961835,5.549618320610687
-0.08935546875,0.14990234375,1.2647705078125,-27.35114503816794,-32.213740458015266,34.6412213740458
0.0032958984375,-0.02978515625,1.01611328125,-44.916030534351144,-35.12213740458015,-9.030534351145038
-0.118408203125,-0.1033935546875,1.035888671875,-70.09160305343511,10.870229007633588,2.1755725190839694
-0.097900390625,-0.0517578125,0.9581298828125,-24.48854961832061,-28.0381679389313,-18.396946564885496
-0.0294189453125,-0.201904296875,0.789306640625,4.099236641221374,-29.068702290076335,-11.900763358778626
0.0391845703125,-0.23095703125,0.6539306640625,30.015267175572518,-16.442748091603054,11.305343511450381
0.03271484375,-0.1458740234375,0.7684326171875,-4.908396946564886,-4.145038167938932,7.358778625954199
0.0806884765625,-0.2196044921875,0.8260498046875,12.259541984732824,10.877862595419847,-4.877862595419847
0.051025390625,-0.21533203125,0.8927001953125,-9.0,-4.67175572519084,5.66412213740458
0.10595703125,-0.1107177734375,0.8052978515625,14.061068702290076,4.206106870229007,17.946564885496183
0.0675048828125,-0.1610107421875,0.735595703125,51.74045801526717,8.961832061068701,7.129770992366412
0.1219482421875,0.0087890625,0.6790771484375,65.90839694656489,0.44274809160305345,7.8320610687022905
0.0361328125,0.06103515625,0.751220703125,28.3206106870229,26.85496183206107,-11.725190839694656
0.0068359375,0.108154296875,0.7843017578125,68.93893129770993,28.450381679389313,-2.4732824427480917
-0.133056640625,0.4288330078125,0.8272705078125,35.274809160305345,54.12213740458015,-24.65648854961832
-0.21337890625,0.6165771484375,1.014404296875,-14.83969465648855,34.2442748091603,-0.03816793893129771
-0.1875,0.4859619140625,1.3201904296875,-26.19083969465649,43.732824427480914,14.259541984732824
-0.277099609375,0.346435546875,1.1068115234375,-35.541984732824424,0.6793893129770993,5.656488549618321
-0.239501953125,0.2901611328125,0.9864501953125,-75.3969465648855,-4.022900763358779,-16.366412213740457
-0.21630859375,0.1259765625,0.985107421875,-25.83206106870229,-1.7786259541984732,-6.450381679389313
-0.1959228515625,0.199951171875,1.043701171875,6.740458015267175,1.3129770992366412,4.473282442748092
-0.2232666015625,0.260986328125,1.09228515625,-11.419847328244275,-17.519083969465647,0.2366412213740458
-0.267333984375,0.3724365234375,1.086669921875,-36.396946564885496,-29.66412213740458,3.2900763358778624
-0.317138671875,0.356201171875,0.9696044921875,-58.57251908396947,-64.82442748091603,7.458015267175573
-0.044189453125,-0.0294189453125,0.614990234375,-38.83969465648855,-67.06106870229007,13.83969465648855
0.2139892578125,-0.1962890625,0.599853515625,-27.9618320610687,-39.038167938931295,2.2213740458015265
0.1488037109375,-0.0775146484375,0.7835693359375,-16.82442748091603,-26.33587786259542,-6.694656488549619
0.2548828125,-0.0721435546875,0.730224609375,0.0916030534351145,4.221374045801527,-6.511450381679389
0.142333984375,-0.0087890625,0.9696044921875,-6.862595419847328,-2.946564885496183,-4.198473282442748
0.155517578125,-0.0740966796875,0.69091796875,4.473282442748092,-9.13740458015267,0.22900763358778625
0.248779296875,-0.07275390625,0.43896484375,8.770992366412214,18.68702290076336,-7.526717557251908
-0.012939453125,0.0489501953125,0.6014404296875,39.58015267175573,54.847328244274806,-3.0
-0.041015625,0.2802734375,0.927978515625,44.6412213740458,77.38931297709924,-27.0381679389313
-0.3116455078125,0.2462158203125,1.4014892578125,51.70992366412214,69.21374045801527,-0.3435114503816794
-0.2235107421875,0.5859375,1.25146484375,18.419847328244273,19.633587786259543,1.6564885496183206
-0.22119140625,0.422119140625,0.9786376953125,1.900763358778626,2.312977099236641,5.603053435114504
-0.249267578125,0.3218994140625,0.9049072265625,-4.213740458015267,-8.366412213740459,5.8320610687022905
-0.205078125,0.401123046875,1.0263671875,-30.3206106870229,-7.099236641221374,-6.419847328244275
-0.2862548828125,0.2535400390625,1.33740234375,-32.83206106870229,-4.8320610687022905,-11.358778625954198
-0.310302734375,0.3372802734375,1.1629638671875,-13.022900763358779,-37.85496183206107,7.900763358778626
-0.271728515625,0.1912841796875,0.9976806640625,-29.61832061068702,-58.6793893129771,5.6106870229007635
0.0467529296875,0.126708984375,0.6988525390625,-20.84732824427481,-40.51908396946565,2.5801526717557253
0.075439453125,0.04736328125,0.6282958984375,-22.938931297709924,-24.519083969465647,3.2595419847328246
0.0401611328125,-0.0482177734375,0.64111328125,2.786259541984733,-10.122137404580153,9.541984732824428
0.0758056640625,-0.0694580078125,0.9591064453125,-0.1984732824427481,-2.0610687022900764,-8.778625954198473
0.1627197265625,0.000244140625,0.9158935546875,-6.396946564885496,-5.32824427480916,-2.49618320610687
0.150146484375,0.0010986328125,0.8179931640625,-13.48091603053435,-7.480916030534351,-3.2900763358778624
0.1973876953125,0.0869140625,0.5703125,-9.916030534351146,-2.687022900763359,2.6564885496183206
0.1328125,-0.078125,0.6192626953125,13.51908396946565,30.396946564885496,5.511450381679389
0.1212158203125,0.1494140625,0.561767578125,15.17557251908397,43.267175572519086,-3.4732824427480917
-0.0440673828125,0.4383544921875,0.9512939453125,15.969465648854962,61.05343511450382,-3.1374045801526718
-0.100830078125,0.3602294921875,1.4810791015625,15.488549618320612,47.12977099236641,-0.8091603053435115
-0.264404296875,0.4664306640625,1.382080078125,-11.977099236641221,-8.122137404580153,14.198473282442748
-0.1424560546875,0.1502685546875,0.8343505859375,-27.0381679389313,-18.328244274809162,20.603053435114504
-0.223388671875,-0.4400634765625,0.9737548828125,42.29007633587786,-20.83206106870229,-31.786259541984734
-0.2325439453125,-0.0120849609375,0.904541015625,16.87786259541985,-28.053435114503817,-80.44274809160305
-0.183349609375,0.2698974609375,0.8009033203125,-13.748091603053435,-29.213740458015266,-102.17557251908397
-0.1351318359375,0.272705078125,0.874755859375,24.65648854961832,-14.099236641221374,-81.93893129770993
-0.025146484375,0.5174560546875,0.84814453125,11.244274809160306,-11.251908396946565,-36.37404580152672
-0.0635986328125,0.563232421875,0.792724609375,-14.229007633587786,-3.885496183206107,-8.977099236641221
-0.096923828125,0.3843994140625,0.889404296875,-0.15267175572519084,-5.122137404580153,0.6564885496183206
-0.0943603515625,0.468017578125,0.837646484375,1.8244274809160306,-9.16793893129771,25.80916030534351
-0.0418701171875,0.6885986328125,0.635498046875,-16.206106870229007,5.396946564885496,57.01526717557252
-0.1591796875,0.6051025390625,0.712158203125,-19.14503816793893,70.78625954198473,87.52671755725191
-0.317138671875,-0.1417236328125,1.1524658203125,-20.328244274809162,29.9618320610687,64.83969465648855
-0.210693359375,-0.321044921875,1.0892333984375,-29.603053435114504,7.038167938931298,27.61832061068702
-0.1553955078125,-0.029052734375,0.947509765625,-5.465648854961832,7.412213740458015,18.412213740458014
-0.170654296875,0.086669921875,0.927734375,-11.34351145038168,3.9083969465648853,11.335877862595419
-0.176513671875,0.11083984375,0.959228515625,-5.145038167938932,6.694656488549619,8.427480916030534
-0.1898193359375,0.009521484375,0.998291015625,5.8320610687022905,4.312977099236641,24.80916030534351
-0.321533203125,-0.3055419921875,1.0072021484375,29.33587786259542,-56.221374045801525,-61.099236641221374
-0.2493896484375,-0.15966796875,0.84033203125,2.3587786259541983,-73.06106870229007,-157.05343511450383
-0.2667236328125,0.2437744140625,0.760498046875,83.9618320610687,-17.595419847328245,-163.26717557251908
-0.130615234375,0.9324951171875,0.59716796875,21.49618320610687,-0.7938931297709924,-83.10687022900764
-0.1041259765625,0.4464111328125,0.8699951171875,-4.122137404580153,9.84732824427481,-39.56488549618321
-0.0850830078125,0.2999267578125,0.845703125,-2.801526717557252,-1.7938931297709924,-6.320610687022901
-0.136962890625,0.4600830078125,0.93115234375,0.4198473282442748,-2.969465648854962,9.80916030534351
-0.0789794921875,0.6080322265625,0.826171875,-22.198473282442748,-24.251908396946565,59.49618320610687
-0.1009521484375,0.7196044921875,0.6036376953125,-26.603053435114504,22.717557251908396,110.69465648854961
-0.18115234375,0.512939453125,0.7598876953125,-46.770992366412216,45.18320610687023,131.8091603053435
-0.259765625,-0.1634521484375,0.876953125,-69.01526717557252,54.61068702290076,140.1679389312977
-0.1663818359375,-0.54345703125,1.031494140625,-60.12213740458015,15.358778625954198,45.35114503816794
-0.0595703125,-0.1854248046875,0.8568115234375,-35.44274809160305,3.6259541984732824,9.305343511450381
-0.103759765625,-0.0172119140625,0.9566650390625,-12.236641221374045,2.145038167938931,3.648854961832061
-0.0947265625,-0.108154296875,0.91259765625,-2.0381679389312977,-1.717557251908397,0.16793893129770993
-0.12548828125,-0.2276611328125,1.01123046875,-0.9618320610687023,-4.557251908396947,-24.99236641221374
-0.1025390625,-0.267333984375,0.920166015625,36.01526717557252,-23.564885496183205,-39.778625954198475
-0.164794921875,-0.384033203125,0.8704833984375,51.33587786259542,-29.091603053435115,-114.38167938931298
-0.214599609375,0.298583984375,0.756103515625,74.74045801526718,-23.763358778625953,-127.5114503816794
-0.17431640625,0.719970703125,0.7763671875,40.63358778625954,-15.770992366412214,-85.83969465648855
-0.031005859375,0.56884765625,0.8682861328125,4.358778625954199,-32.14503816793893,-31.358778625954198
0.0643310546875,0.39501953125,0.7783203125,-0.9236641221374046,-8.259541984732824,-3.099236641221374
0.014404296875,0.2799072265625,0.888427734375,4.702290076335878,2.7404580152671754,-1.3053435114503817
0.005615234375,0.4254150390625,0.9373779296875,-6.511450381679389,-6.137404580152672,3.5267175572519083
0.025146484375,0.53564453125,0.8306884765625,-14.51908396946565,-3.946564885496183,29.0381679389313
-0.0477294921875,0.80810546875,0.7000732421875,-1.1603053435114503,19.72519083969466,103.25190839694656
-0.1529541015625,0.5701904296875,0.7431640625,-5.99236641221374,49.38931297709924,158.38167938931298
-0.248291015625,0.261474609375,0.8912353515625,-43.33587786259542,47.70992366412214,151.6259541984733
-0.095703125,-0.6881103515625,1.010986328125,-59.89312977099237,33.213740458015266,83.67175572519083
-0.0107421875,-0.155029296875,0.9581298828125,-7.801526717557252,21.6793893129771,7.801526717557252
-0.025146484375,0.1654052734375,1.0343017578125,-6.412213740458015,12.396946564885496,4.183206106870229
-0.03955078125,-0.05078125,0.947509765625,-8.885496183206106,4.511450381679389,2.801526717557252
-0.1007080078125,-0.2542724609375,1.027099609375,32.43511450381679,-8.412213740458014,-25.27480916030534
-0.11328125,-0.244873046875,0.9439697265625,19.72519083969466,-32.25190839694657,-78.66412213740458
-0.226806640625,-0.1375732421875,0.9075927734375,37.37404580152672,-53.06106870229008,-130.0916030534351
-0.1917724609375,0.31884765625,0.7540283203125,56.29770992366412,-63.99236641221374,-148.0916030534351
-0.093505859375,1.14599609375,0.591796875,14.893129770992367,-23.244274809160306,-77.31297709923665
0.0361328125,0.554443359375,0.7615966796875,-13.83206106870229,9.694656488549619,-9.267175572519085
-0.0711669921875,0.4315185546875,0.93359375,8.801526717557252,6.259541984732825,-5.3816793893129775
-0.050537109375,0.436767578125,0.8790283203125,-14.86259541984733,-16.83969465648855,-4.6106870229007635
-0.0113525390625,0.4598388671875,0.78466796875,-0.030534351145038167,-5.366412213740458,-0.8931297709923665
-0.0684814453125,0.869384765625,0.749267578125,-19.412213740458014,-0.6183206106870229,36.80916030534351
-0.0958251953125,0.7708740234375,0.5950927734375,-70.02290076335878,30.03053435114504,114.05343511450381
-0.267333984375,0.1263427734375,0.81103515625,-40.587786259541986,55.81679389312977,149.23664122137404
-0.2257080078125,-0.41796875,1.089599609375,-67.42748091603053,41.099236641221374,99.53435114503817
-0.027099609375,-0.244873046875,0.8084716796875,-62.717557251908396,12.572519083969466,32.29007633587786
-0.035400390625,-0.088134765625,0.94287109375,-13.16030534351145,2.435114503816794,-6.625954198473282
-0.059814453125,-0.01025390625,0.9603271484375,4.145038167938932,0.9847328244274809,0.7862595419847328
-0.056640625,-0.137451171875,0.94921875,15.229007633587786,-0.8091603053435115,-0.2595419847328244
-0.0848388671875,-0.27099609375,1.00146484375,31.137404580152673,-12.15267175572519,-34.02290076335878
-0.1346435546875,-0.0853271484375,0.9609375,69.35114503816794,-35.916030534351144,-70.7175572519084
-0.15283203125,0.040283203125,0.7613525390625,67.33587786259542,-64.41221374045801,-115.22900763358778
-0.092529296875,0.72021484375,0.62451171875,27.053435114503817,-45.404580152671755,-116.12213740458016
0.0543212890625,0.88671875,0.5963134765625,36.41984732824427,-9.992366412213741,-58.41984732824427
-0.0364990234375,0.7933349609375,0.7308349609375,5.8320610687022905,-3.8244274809160306,-14.183206106870228
-0.016357421875,0.503173828125,0.775390625,-8.557251908396946,-2.030534351145038,8.091603053435115
-0.0096435546875,0.5533447265625,0.800048828125,-11.977099236641221,3.213740458015267,10.297709923664122
-0.025146484375,0.8385009765625,0.697998046875,-30.633587786259543,17.900763358778626,56.43511450381679
-0.062255859375,0.659912109375,0.6890869140625,-68.74045801526718,29.64885496183206,82.45038167938931
-0.1416015625,0.2740478515625,0.8612060546875,-56.595419847328245,39.16030534351145,108.1145038167939
-0.1356201171875,-0.170654296875,0.9351806640625,-47.9236641221374,30.0,102.32824427480917
-0.030029296875,-0.4232177734375,1.0067138671875,-17.083969465648856,8.099236641221374,25.068702290076335
-0.0267333984375,-0.12548828125,0.9501953125,-15.236641221374045,11.312977099236642,2.183206106870229
-0.0572509765625,0.1468505859375,0.98388671875,-6.114503816793893,1.8244274809160306,2.8625954198473282
-0.0728759765625,-0.1805419921875,0.996826171875,13.83206106870229,-7.480916030534351,-6.083969465648855
-0.104248046875,-0.3359375,1.086181640625,36.2442748091603,-23.068702290076335,-50.55725190839695
-0.1397705078125,-0.14990234375,0.771240234375,69.38167938931298,-41.50381679389313,-107.12213740458016
-0.2303466796875,0.5142822265625,0.7467041015625,53.534351145038165,-39.900763358778626,-128.01526717557252
-0.1475830078125,0.9427490234375,0.71484375,38.82442748091603,-21.572519083969464,-104.54198473282443
-0.048828125,0.4757080078125,0.8399658203125,-3.633587786259542,-16.916030534351144,-36.229007633587784
-0.0091552734375,0.50537109375,0.82666015625,8.98473282442748,-7.0458015267175576,-7.9541984732824424
-0.031005859375,0.4171142578125,0.8359375,5.175572519083969,-2.6717557251908395,5.3893129770992365
-0.012451171875,0.5150146484375,0.8140869140625,-3.618320610687023,2.0916030534351147,18.770992366412212
-0.0888671875,0.763427734375,0.6480712890625,-27.16030534351145,16.885496183206108,64.10687022900764
-0.1597900390625,0.48193359375,0.7154541015625,-48.57251908396947,46.54961832061068,125.22900763358778
-0.270751953125,-0.00341796875,0.947509765625,-72.08396946564885,42.47328244274809,127.26717557251908
-0.156005859375,-0.1400146484375,0.958984375,-60.48091603053435,27.572519083969464,93.62595419847328
-0.1429443359375,-0.5982666015625,1.1231689453125,-15.763358778625955,-7.450381679389313,15.86259541984733
-0.042724609375,-0.135009765625,0.9283447265625,-13.381679389312977,2.213740458015267,5.259541984732825
-0.07080078125,-0.0233154296875,0.92919921875,3.0916030534351147,-2.053435114503817,0.030534351145038167
-0.0687255859375,-0.2193603515625,0.9739990234375,15.50381679389313,0.16030534351145037,-10.458015267175572
-0.1336669921875,-0.375,1.0670166015625,30.442748091603054,-10.16030534351145,-41.61832061068702
-0.1832275390625,-0.2225341796875,0.93798828125,83.12213740458016,-46.58015267175573,-87.67175572519083
-0.209228515625,0.394287109375,0.649658203125,50.13740458015267,-56.213740458015266,-124.20610687022901
-0.139892578125,0.706787109375,0.6771240234375,-11.427480916030534,-28.129770992366414,-155.5114503816794
-0.0152587890625,0.711669921875,0.749755859375,32.396946564885496,-0.13740458015267176,-43.83206106870229
-0.0484619140625,0.576416015625,0.8564453125,-6.251908396946565,1.0916030534351144,1.3740458015267176
-0.004638671875,0.258544921875,0.844482421875,-11.114503816793894,0.15267175572519084,6.236641221374046
-0.0609130859375,0.48876953125,0.8453369140625,9.312977099236642,0.061068702290076333,19.9618320610687
-0.1063232421875,1.0091552734375,0.7142333984375,-38.87786259541985,14.183206106870228,99.34351145038168
-0.0902099609375,0.49609375,0.6517333984375,-78.81679389312977,27.16030534351145,127.66412213740458
-0.133544921875,0.0357666015625,0.7376708984375,-46.62595419847328,35.50381679389313,127.40458015267176
-0.0108642578125,-0.4853515625,0.9833984375,-51.18320610687023,27.15267175572519,77.77099236641222
-0.0169677734375,-0.46728515625,0.992431640625,-11.045801526717558,4.236641221374046,-4.694656488549619
-0.0087890625,0.026123046875,0.898681640625,-3.0,7.114503816793893,-7.763358778625954
-0.0506591796875,0.0333251953125,1.0164794921875,2.8091603053435112,0.3969465648854962,1.3511450381679388
-0.0068359375,-0.0728759765625,0.9205322265625,23.251908396946565,-8.488549618320612,-15.435114503816793
-0.0205078125,0.344970703125,0.95068359375,51.916030534351144,-4.526717557251908,-30.27480916030534
-0.0179443359375,0.8299560546875,0.7869873046875,34.595419847328245,-10.221374045801527,32.969465648854964
-0.138916015625,0.8331298828125,0.5643310546875,-29.16793893129771,42.93893129770992,131.51908396946564
-0.3560791015625,0.0899658203125,0.81884765625,-36.33587786259542,66.55725190839695,171.08396946564886
-0.3837890625,-0.4674072265625,1.07177734375,-7.587786259541985,50.656488549618324,120.92366412213741
-0.2431640625,-0.35693359375,1.0042724609375,-7.900763358778626,21.33587786259542,36.83206106870229
-0.2969970703125,-0.3878173828125,1.0482177734375,-47.587786259541986,-21.396946564885496,-23.81679389312977
-0.177978515625,0.1572265625,0.8302001953125,6.190839694656488,2.381679389312977,-17.69465648854962
-0.1873779296875,0.013427734375,1.0828857421875,4.748091603053435,-14.282442748091603,-8.450381679389313
-0.2091064453125,-0.182861328125,1.0750732421875,31.076335877862597,-53.80152671755725,-35.44274809160305
-0.1368408203125,-0.1485595703125,0.861328125,49.54961832061068,-76.23664122137404,-71.19847328244275
-0.0941162109375,0.2047119140625,0.6881103515625,43.20610687022901,-70.99236641221374,-113.70992366412214
-0.0009765625,0.5736083984375,0.5706787109375,-3.816793893129771,-8.610687022900763,-133.57251908396947
-0.0072021484375,0.942626953125,0.779296875,-6.190839694656488,10.572519083969466,-62.603053435114504
0.037841796875,0.6817626953125,0.76953125,-6.251908396946565,9.977099236641221,0.007633587786259542
-0.018310546875,0.4544677734375,0.8592529296875,-5.511450381679389,14.572519083969466,7.717557251908397
-0.057373046875,0.4454345703125,0.902099609375,-10.206106870229007,7.770992366412214,16.564885496183205
-0.045166015625,0.634765625,0.7938232421875,-1.4122137404580153,6.541984732824427,30.206106870229007
-0.010986328125,0.655029296875,0.818603515625,-2.6564885496183206,15.961832061068701,47.091603053435115
-0.0252685546875,0.675537109375,0.617431640625,-74.98473282442748,13.038167938931299,78.41221374045801
-0.038818359375,0.0657958984375,0.572509765625,-110.83969465648855,48.16030534351145,77.41984732824427
-0.2874755859375,-0.253662109375,0.852294921875,-63.3206106870229,65.99236641221374,38.67175572519084
-0.71484375,-0.976318359375,1.228271484375,48.29770992366412,-50.36641221374046,-56.33587786259542
-0.3099365234375,-0.4483642578125,1.053955078125,-6.603053435114504,36.725190839694655,-3.267175572519084
-0.3592529296875,-0.0654296875,0.947021484375,-9.145038167938932,5.038167938931298,-19.076335877862597
-0.2454833984375,-0.093017578125,0.84765625,4.977099236641221,-8.48091603053435,-8.206106870229007
-0.2779541015625,-0.1875,0.8931884765625,1.7709923664122138,-16.778625954198475,-7.0534351145038165
-0.258056640625,-0.34912109375,0.9453125,28.72519083969466,-11.717557251908397,-9.916030534351146
-0.21240234375,-0.30859375,0.89404296875,39.36641221374046,-24.587786259541986,-37.97709923664122
-0.25,-0.08935546875,0.98828125,56.13740458015267,-23.587786259541986,-44.19083969465649
-0.236083984375,0.068603515625,0.9588623046875,68.27480916030534,-33.99236641221374,-54.52671755725191
-0.1031494140625,0.37353515625,0.767822265625,54.61832061068702,-20.18320610687023,-67.74809160305344
-0.08203125,0.5216064453125,0.740234375,23.885496183206108,-0.5038167938931297,-44.847328244274806
-0.138671875,0.682861328125,0.7760009765625,1.3893129770992367,9.099236641221374,-15.786259541984732
-0.124267578125,0.435302734375,0.8990478515625,0.6870229007633588,3.8625954198473282,10.900763358778626
-0.1588134765625,0.419677734375,1.01953125,-4.931297709923665,-1.900763358778626,16.19083969465649
-0.1624755859375,0.5374755859375,0.8909912109375,-25.793893129770993,-18.366412213740457,28.480916030534353
0.020263671875,0.317138671875,0.7711181640625,-57.86259541984733,-6.1603053435114505,60.2442748091603
0.0361328125,0.2674560546875,0.5498046875,-7.633587786259542,28.076335877862597,59.44274809160305
-0.2572021484375,0.0828857421875,0.7073974609375,37.86259541984733,74.49618320610686,61.41984732824427
-0.5330810546875,0.4072265625,0.836181640625,-28.15267175572519,81.85496183206106,86.82442748091603
-0.4534912109375,-0.2269287109375,1.367431640625,-24.061068702290076,29.64885496183206,47.19083969465649
-0.3289794921875,0.0257568359375,0.9449462890625,-15.572519083969466,-11.641221374045802,-6.778625954198473
-0.348876953125,0.19189453125,0.971923828125,-4.977099236641221,-24.786259541984734,-12.580152671755725
-0.302978515625,0.215087890625,0.9400634765625,28.221374045801525,-26.954198473282442,-8.83206106870229
-0.2396240234375,-0.034423828125,1.03076171875,51.85496183206107,-37.68702290076336,-16.99236641221374
-0.2781982421875,0.132568359375,0.9166259765625,66.55725190839695,-81.50381679389314,-55.42748091603053
-0.15576171875,0.4222412109375,0.6575927734375,24.52671755725191,-76.09923664122137,-80.78625954198473
-0.111572265625,0.8463134765625,0.4244384765625,7.66412213740458,-30.65648854961832,-66.27480916030534
-0.117431640625,0.9573974609375,0.529541015625,-1.3358778625954197,-9.870229007633588,-24.732824427480917
-0.0780029296875,0.6326904296875,0.6766357421875,-3.648854961832061,1.8931297709923665,-0.5877862595419847
-0.1025390625,0.5902099609375,0.7462158203125,-8.50381679389313,6.534351145038168,1.9694656488549618
-0.1134033203125,0.4766845703125,0.6563720703125,-48.31297709923664,-46.00763358778626,34.19083969465649
-0.161865234375,0.837646484375,0.607666015625,-39.30534351145038,24.328244274809162,20.366412213740457
-0.1817626953125,0.8533935546875,0.5462646484375,-48.82442748091603,44.25190839694657,61.29007633587786
-0.28173828125,0.447509765625,0.7080078125,-65.37404580152672,51.06106870229008,84.73282442748092
-0.3656005859375,0.3731689453125,0.6431884765625,-57.48854961832061,57.18320610687023,82.46564885496183
-0.2374267578125,-0.254638671875,0.930908203125,-38.083969465648856,59.82442748091603,36.213740458015266
-0.5050048828125,-0.30517578125,1.3876953125,-42.70992366412214,-4.908396946564886,3.3587786259541983
-0.313232421875,0.10302734375,0.7603759765625,-14.534351145038167,-7.175572519083969,0.11450381679389313
-0.2974853515625,0.110595703125,0.926513671875,16.404580152671755,7.679389312977099,-1.2900763358778626
-0.390625,-0.1234130859375,1.102783203125,34.01526717557252,-29.396946564885496,-5.374045801526718
-0.3544921875,-0.0821533203125,0.9630126953125,62.587786259541986,-66.89312977099236,-41.12977099236641
-0.2586669921875,0.11962890625,0.7978515625,58.61068702290076,-112.06106870229007,-61.67175572519084
-0.0975341796875,0.6448974609375,0.5023193359375,28.099236641221374,-39.778625954198475,-83.67175572519083
-0.0965576171875,0.65869140625,0.6724853515625,23.282442748091604,-30.84732824427481,-80.36641221374046
-0.1566162109375,0.7764892578125,0.6163330078125,-9.213740458015268,11.282442748091603,-33.3206106870229
-0.197509765625,0.601318359375,0.7569580078125,-21.923664122137403,21.114503816793892,-6.961832061068702
-0.200439453125,0.5438232421875,0.7825927734375,-5.625954198473282,1.6564885496183206,4.916030534351145
-0.240234375,0.6685791015625,0.7813720703125,-23.633587786259543,3.618320610687023,15.587786259541986
-0.186767578125,0.5665283203125,0.701171875,-33.36641221374046,8.893129770992367,44.93129770992366
-0.1964111328125,0.5986328125,0.6846923828125,-23.091603053435115,29.87786259541985,44.06106870229008
-0.183349609375,0.35498046875,0.5540771484375,-67.58778625954199,44.656488549618324,38.770992366412216
-0.41064453125,-0.0064697265625,0.787353515625,-69.17557251908397,73.44274809160305,39.48091603053435
-0.44287109375,-0.2691650390625,0.9912109375,-53.19847328244275,34.961832061068705,-10.709923664122137
-0.6009521484375,0.02001953125,1.14697265625,-31.65648854961832,18.16030534351145,-4.396946564885496
-0.443359375,-0.2318115234375,0.9019775390625,3.2290076335877864,-23.66412213740458,8.091603053435115
-0.4161376953125,-0.1385498046875,0.8701171875,35.48854961832061,-19.770992366412212,4.900763358778626
-0.4765625,-0.1019287109375,1.0394287109375,45.0763358778626,-33.282442748091604,-18.908396946564885
-0.402587890625,0.1468505859375,0.9669189453125,43.465648854961835,-63.67175572519084,-49.36641221374046
-0.269775390625,0.2874755859375,0.828369140625,35.30534351145038,-73.79389312977099,-52.79389312977099
-0.1448974609375,0.47265625,0.64794921875,31.14503816793893,-51.786259541984734,-45.656488549618324
-0.0341796875,0.48876953125,0.6104736328125,19.129770992366414,-25.99236641221374,-31.50381679389313
-0.074462890625,0.5206298828125,0.7288818359375,6.236641221374046,-10.694656488549619,-24.427480916030536
-0.087158203125,0.552490234375,0.76025390625,-3.572519083969466,-3.2290076335877864,-4.236641221374046
-0.045654296875,0.49951171875,0.7705078125,-11.022900763358779,7.587786259541985,11.030534351145038
-0.06787109375,0.4554443359375,0.807861328125,-23.106870229007633,14.618320610687023,18.374045801526716
-0.1029052734375,0.4693603515625,0.8270263671875,6.458015267175573,17.297709923664122,24.564885496183205
-0.1307373046875,0.58056640625,0.700439453125,32.76335877862596,30.099236641221374,37.786259541984734
-0.3232421875,0.55419921875,0.62255859375,-45.36641221374046,61.20610687022901,64.52671755725191
-0.319091796875,-0.22216796875,0.857666015625,-63.6412213740458,89.99236641221374,92.80152671755725
-0.37890625,-0.098388671875,1.0933837890625,-37.68702290076336,38.01526717557252,4.816793893129771
-0.414794921875,0.1885986328125,1.0263671875,-10.793893129770993,13.297709923664122,-7.236641221374046
-0.41259765625,0.1610107421875,0.959716796875,0.11450381679389313,-20.061068702290076,7.603053435114504
-0.3204345703125,-0.1339111328125,0.9376220703125,26.717557251908396,-28.46564885496183,0.8702290076335878
-0.3133544921875,-0.133544921875,0.9449462890625,59.45038167938932,-58.282442748091604,-30.931297709923665
-0.306396484375,0.1798095703125,0.8406982421875,58.38931297709924,-73.44274809160305,-69.09160305343511
-0.2529296875,0.5079345703125,0.638671875,61.38931297709924,-71.8854961832061,-89.2442748091603
-0.2286376953125,0.922607421875,0.4456787109375,18.52671755725191,-18.297709923664122,-43.52671755725191
-0.082763671875,0.89599609375,0.653076171875,18.15267175572519,-30.442748091603054,-26.572519083969464
-0.1846923828125,0.515869140625,0.5975341796875,5.862595419847328,48.3206106870229,-39.038167938931295
-0.0400390625,0.676025390625,0.4345703125,112.06870229007633,-98.81679389312977,47.61832061068702
-0.0411376953125,0.9034423828125,0.5770263671875,-9.076335877862595,7.091603053435114,38.48854961832061
-0.078369140625,0.9239501953125,0.463134765625,-21.290076335877863,13.82442748091603,62.030534351145036
-0.0069580078125,0.4093017578125,0.5108642578125,-24.68702290076336,65.3587786259542,61.9236641221374
-0.401611328125,0.468994140625,0.486083984375,-245.4885496183206,182.3053435114504,56.29007633587786
-0.47216796875,-0.290771484375,1.22705078125,0.4732824427480916,77.66412213740458,66.0381679389313
-0.3328857421875,0.0169677734375,1.093994140625,-0.5954198473282443,-4.557251908396947,14.213740458015268
-0.2864990234375,0.3465576171875,0.90771484375,8.648854961832061,-27.557251908396946,-19.83206106870229
-0.2276611328125,0.276123046875,0.88623046875,0.07633587786259542,-31.908396946564885,-12.351145038167939
-0.20361328125,0.217041015625,0.944091796875,32.25190839694657,-51.05343511450382,-35.091603053435115
-0.2144775390625,0.2384033203125,0.90478515625,44.23664122137404,-107.29770992366412,-58.465648854961835
-0.1129150390625,0.607177734375,0.61083984375,22.81679389312977,-72.67175572519083,-88.03053435114504
-0.0753173828125,0.97265625,0.4542236328125,6.778625954198473,-41.29007633587786,-57.02290076335878
-0.038818359375,0.87353515625,0.627197265625,-5.366412213740458,-3.236641221374046,-0.4198473282442748
0.0194091796875,0.5455322265625,0.68994140625,-7.9465648854961835,1.16793893129771,5.33587786259542
-0.036865234375,0.54736328125,0.702392578125,-0.7404580152671756,5.687022900763359,1.1068702290076335
-0.0390625,0.8310546875,0.6326904296875,-27.259541984732824,20.12213740458015,33.31297709923664
-0.14013671875,0.8131103515625,0.5743408203125,-83.51908396946565,64.45038167938931,117.67175572519083
-0.3033447265625,0.7366943359375,0.6036376953125,-114.12213740458016,56.534351145038165,91.94656488549619
-0.4609375,-0.1580810546875,0.891845703125,-126.8473282442748,48.099236641221374,91.80916030534351
-0.3726806640625,-0.4249267578125,0.96142578125,-59.99236641221374,15.82442748091603,22.412213740458014
-0.3460693359375,-0.1934814453125,0.9969482421875,-0.32061068702290074,-6.1679389312977095,-8.603053435114504
-0.28759765625,0.0028076171875,0.94873046875,7.068702290076335,-3.5343511450381677,-20.442748091603054
-0.3140869140625,-0.218505859375,1.1539306640625,87.0381679389313,-50.19847328244275,-38.0763358778626
-0.261474609375,-0.040771484375,0.795654296875,80.62595419847328,-111.51908396946565,-69.62595419847328
-0.0640869140625,0.3841552734375,0.493896484375,58.93893129770992,-76.87022900763358,-127.59541984732824
-0.123046875,0.8404541015625,0.627197265625,14.022900763358779,-10.84732824427481,-75.38167938931298
-0.0811767578125,0.8974609375,0.6380615234375,-26.748091603053435,5.488549618320611,-6.656488549618321
-0.06005859375,0.5029296875,0.7991943359375,-2.8244274809160306,6.465648854961832,7.862595419847328
-0.0970458984375,0.3427734375,0.8619384765625,-20.69465648854962,20.99236641221374,5.244274809160306
-0.144287109375,0.4808349609375,0.8948974609375,12.51908396946565,-9.625954198473282,-14.022900763358779
-0.18115234375,1.0782470703125,0.550048828125,-16.564885496183205,12.717557251908397,37.3587786259542
-0.310302734375,0.9422607421875,0.1624755859375,-152.74045801526717,129.55725190839695,182.70992366412213
-0.4942626953125,-0.3924560546875,0.415771484375,-74.38931297709924,90.65648854961832,206.76335877862596
-0.63134765625,-0.4163818359375,1.0921630859375,9.0,15.206106870229007,31.18320610687023
-0.435791015625,-0.1611328125,0.9937744140625,19.076335877862597,-19.198473282442748,-28.19083969465649
-0.38037109375,0.0299072265625,0.9708251953125,23.34351145038168,-44.89312977099237,-31.778625954198475
-0.276123046875,-0.0911865234375,0.9068603515625,44.343511450381676,-77.05343511450381,-68.06106870229007
-0.287353515625,0.04150390625,0.8330078125,29.50381679389313,-74.12977099236642,-94.34351145038168
-0.1490478515625,0.091064453125,0.71337890625,18.580152671755727,-71.48091603053435,-124.66412213740458
-0.01806640625,1.2724609375,0.583984375,1.8778625954198473,36.458015267175576,-36.37404580152672
-0.0028076171875,0.3165283203125,0.8388671875,6.297709923664122,2.1603053435114505,27.282442748091604
-0.065185546875,-0.015869140625,0.993408203125,-15.106870229007633,12.549618320610687,25.374045801526716
-0.14990234375,-0.026611328125,1.0594482421875,7.198473282442748,-36.152671755725194,-44.10687022900763
-0.1099853515625,0.3212890625,1.0340576171875,25.419847328244273,-43.02290076335878,-86.85496183206106
0.05712890625,0.16162109375,0.7132568359375,7.847328244274809,-42.66412213740458,-83.00763358778626
-0.0245361328125,0.314697265625,0.5135498046875,45.36641221374046,9.290076335877863,-168.29770992366412
-0.347900390625,1.2833251953125,0.7982177734375,23.442748091603054,31.786259541984734,-74.36641221374046
-0.244140625,0.6956787109375,0.80029296875,-32.534351145038165,10.694656488549619,43.62595419847328
-0.21728515625,0.4578857421875,0.8258056640625,-39.908396946564885,-5.068702290076335,36.81679389312977
-0.241943359375,0.688232421875,0.7734375,-39.045801526717554,-14.213740458015268,80.21374045801527
-0.152587890625,0.4158935546875,0.62548828125,-54.900763358778626,17.106870229007633,113.42748091603053
-0.1748046875,-0.4588623046875,1.0517578125,-24.18320610687023,48.19083969465649,98.94656488549619
-0.098876953125,-0.13671875,1.044677734375,1.1908396946564885,18.65648854961832,38.23664122137404
-0.0679931640625,0.0147705078125,0.9764404296875,-4.122137404580153,-7.564885496183206,-20.244274809160306
-0.084228515625,0.046630859375,1.0029296875,10.061068702290076,-7.404580152671755,-17.389312977099237
-0.10595703125,0.0328369140625,0.91552734375,39.786259541984734,-16.755725190839694,-50.70229007633588
-0.149658203125,-0.0355224609375,0.958251953125,55.221374045801525,-45.87022900763359,-68.37404580152672
-0.1141357421875,0.5577392578125,0.6356201171875,34.82442748091603,-43.69465648854962,-109.06106870229007
-0.156005859375,0.9398193359375,0.645751953125,27.717557251908396,-2.0381679389312977,-69.27480916030534
-0.1456298828125,0.919921875,0.618408203125,-45.396946564885496,29.267175572519083,8.687022900763358
-0.1217041015625,0.32568359375,0.8004150390625,-28.625954198473284,10.267175572519085,12.84732824427481
-0.1905517578125,0.5272216796875,0.88232421875,-12.122137404580153,-5.511450381679389,13.854961832061068
-0.154541015625,0.688232421875,0.6851806640625,-28.15267175572519,0.10687022900763359,49.221374045801525
-0.1358642578125,0.6253662109375,0.6412353515625,-38.48091603053435,31.236641221374047,90.74045801526718
-0.148193359375,-0.1376953125,0.8565673828125,-61.00763358778626,43.29770992366412,91.90076335877863
-0.1187744140625,-0.389404296875,1.111083984375,-32.48854961832061,7.129770992366412,13.091603053435115
-0.0831298828125,0.02294921875,0.962158203125,3.381679389312977,2.435114503816794,-9.870229007633588
-0.139892578125,0.25732421875,0.9801025390625,9.961832061068701,-5.404580152671755,-4.122137404580153
-0.1607666015625,-0.1884765625,1.1690673828125,45.81679389312977,-42.70229007633588,-27.778625954198475
0.02734375,0.21044921875,0.676025390625,31.84732824427481,-59.221374045801525,-79.45038167938931
-0.08251953125,0.549560546875,0.61376953125,61.51145038167939,-30.297709923664122,-108.38931297709924
-0.1041259765625,1.1282958984375,0.479736328125,17.885496183206108,6.9465648854961835,-48.97709923664122
-0.0731201171875,0.7254638671875,0.66748046875,-29.12213740458015,21.374045801526716,12.717557251908397
-0.115234375,0.2830810546875,0.908935546875,-13.450381679389313,9.801526717557252,0.9923664122137404
-0.2398681640625,0.9368896484375,0.732177734375,-36.51908396946565,-2.8244274809160306,30.427480916030536
-0.2294921875,0.793701171875,0.6568603515625,-57.80152671755725,17.908396946564885,98.41221374045801
-0.1800537109375,0.1920166015625,0.7589111328125,-51.23664122137404,14.17557251908397,112.30534351145039
-0.0484619140625,-0.12109375,0.8145751953125,-27.229007633587788,42.37404580152672,95.36641221374046
-0.0570068359375,-0.3284912109375,1.0155029296875,-33.99236641221374,-14.908396946564885,9.854961832061068
-0.060791015625,0.0694580078125,0.99658203125,6.595419847328245,-1.7557251908396947,-13.274809160305344
-0.0810546875,0.0145263671875,1.1837158203125,29.61832061068702,-27.19083969465649,-15.916030534351146
-0.0091552734375,0.07177734375,0.876708984375,36.25954198473283,-53.47328244274809,-48.31297709923664
0.054443359375,0.2392578125,0.7269287109375,46.99236641221374,-49.717557251908396,-73.41984732824427
0.1182861328125,0.390869140625,0.689208984375,12.526717557251908,-18.49618320610687,-84.20610687022901
0.022216796875,0.5130615234375,0.580322265625,-7.152671755725191,12.633587786259541,-94.2824427480916
-0.1795654296875,0.6165771484375,0.70556640625,8.48091603053435,17.229007633587788,-69.61832061068702
-0.39404296875,0.869873046875,0.739501953125,-18.328244274809162,16.83969465648855,-26.236641221374047
-0.1861572265625,0.446533203125,0.7376708984375,-5.374045801526718,6.648854961832061,-13.381679389312977
-0.2750244140625,0.2945556640625,1.0010986328125,-24.72519083969466,-21.801526717557252,12.67175572519084
-0.2886962890625,0.7723388671875,0.6561279296875,-46.58015267175573,-27.732824427480917,65.25190839694656
-0.2921142578125,0.7353515625,0.5435791015625,-12.488549618320612,4.786259541984733,97.54961832061069
-0.1031494140625,0.301513671875,0.8167724609375,-31.48854961832061,34.41984732824427,102.52671755725191
-0.0921630859375,-0.0587158203125,0.989990234375,-40.44274809160305,35.93129770992366,90.83206106870229
-0.06787109375,-0.209716796875,0.9417724609375,-52.19083969465649,9.412213740458014,53.66412213740458
-0.043701171875,-0.1805419921875,0.99072265625,-31.328244274809162,5.709923664122138,16.435114503816795
-0.086181640625,-0.046142578125,0.9771728515625,2.068702290076336,-9.358778625954198,-10.679389312977099
-0.0911865234375,-0.2781982421875,1.0947265625,27.137404580152673,-29.213740458015266,-35.80916030534351
-0.0693359375,-0.1781005859375,0.8953857421875,50.213740458015266,-46.954198473282446,-74.53435114503817
-0.101806640625,0.3330078125,0.6036376953125,84.19083969465649,-41.3206106870229,-123.20610687022901
-0.2357177734375,0.975830078125,0.2723388671875,57.98473282442748,-30.893129770992367,-97.52671755725191
-0.24462890625,0.938720703125,0.8267822265625,31.38167938931298,-0.7786259541984732,-37.35114503816794
-0.1143798828125,0.786376953125,0.5966796875,-19.267175572519083,-13.679389312977099,9.511450381679388
-0.0760498046875,0.630859375,0.7037353515625,-22.72519083969466,0.9770992366412213,30.557251908396946
-0.106689453125,0.7900390625,0.6204833984375,-62.33587786259542,13.549618320610687,71.2824427480916
-0.1387939453125,0.3902587890625,0.810302734375,-72.18320610687023,36.267175572519086,111.63358778625954
-0.16455078125,-0.172119140625,1.063232421875,-46.58015267175573,58.595419847328245,124.12213740458016
-0.080078125,-0.320068359375,1.117919921875,-39.00763358778626,-1.4580152671755726,34.76335877862596
0.037353515625,-0.018798828125,0.839599609375,-33.93893129770992,2.717557251908397,17.053435114503817
-0.0413818359375,-0.1356201171875,0.985595703125,-5.740458015267175,8.389312977099237,-0.06870229007633588
-0.060546875,-0.3026123046875,1.1258544921875,31.938931297709924,-21.81679389312977,-34.88549618320611
-0.023193359375,-0.173583984375,1.0240478515625,45.80916030534351,-46.55725190839695,-67.9618320610687
-0.0416259765625,0.0889892578125,0.7900390625,71.06870229007633,-44.55725190839695,-120.96946564885496
-0.13623046875,0.5863037109375,0.486572265625,68.1145038167939,-22.82442748091603,-133.2824427480916
-0.123046875,0.9432373046875,0.5667724609375,19.16793893129771,25.328244274809162,-82.69465648854961
-0.15185546875,0.642578125,0.8316650390625,-4.106870229007634,14.740458015267176,-12.793893129770993
-0.1356201171875,0.6439208984375,0.8016357421875,-31.9618320610687,-1.8091603053435115,19.442748091603054
-0.1793212890625,0.56201171875,0.7886962890625,-51.33587786259542,10.022900763358779,57.94656488549618
-0.19873046875,0.478271484375,0.7635498046875,-51.916030534351144,17.72519083969466,89.80916030534351
-0.158447265625,0.2947998046875,0.7261962890625,-64.96946564885496,35.83969465648855,110.83206106870229
-0.18212890625,-0.017578125,0.8673095703125,-92.77099236641222,81.80152671755725,102.3587786259542
-0.1944580078125,-0.5621337890625,1.1121826171875,-47.45038167938932,24.541984732824428,42.99236641221374
-0.1788330078125,-0.13818359375,0.8338623046875,-24.03053435114504,3.8473282442748094,2.427480916030534
-0.2049560546875,-0.4208984375,1.14453125,14.618320610687023,-3.33587786259542,-16.282442748091604
-0.2581787109375,-0.2640380859375,0.96240234375,55.14503816793893,-31.045801526717558,-48.458015267175576
-0.1624755859375,-0.0916748046875,0.8133544921875,78.74809160305344,-57.68702290076336,-70.8473282442748
-0.0887451171875,0.204833984375,0.730224609375,77.93129770992367,-46.900763358778626,-104.8473282442748
-0.100341796875,0.4437255859375,0.53466796875,34.06106870229008,-29.374045801526716,-112.17557251908397
-0.184814453125,0.6123046875,0.799072265625,32.57251908396947,31.12213740458015,-64.5114503816794
-0.3076171875,0.6177978515625,0.92626953125,16.412213740458014,5.297709923664122,-36.64885496183206
-0.2818603515625,0.75732421875,0.727294921875,-17.358778625954198,-12.282442748091603,23.236641221374047
-0.2578125,0.7049560546875,0.6802978515625,-49.595419847328245,-9.01526717557252,68.14503816793894
-0.1961669921875,0.464599609375,0.725830078125,-66.45801526717557,-5.366412213740458,90.94656488549619
-0.08642578125,0.189453125,0.7808837890625,-67.2824427480916,18.106870229007633,99.31297709923665
-0.12548828125,0.1131591796875,0.6895751953125,-90.41221374045801,55.58015267175573,103.90839694656489
-0.1907958984375,-0.587646484375,1.2601318359375,-55.396946564885496,56.11450381679389,45.56488549618321
-0.161376953125,-0.2572021484375,0.7760009765625,-3.3587786259541983,-3.0916030534351147,10.13740458015267
-0.1793212890625,-0.0263671875,0.929931640625,0.1450381679389313,-0.40458015267175573,-5.030534351145038
-0.1817626953125,-0.018798828125,0.9322509765625,6.473282442748092,5.702290076335878,6.633587786259542
-0.1466064453125,-0.263427734375,1.1170654296875,48.213740458015266,5.587786259541985,-18.427480916030536
-0.4156494140625,0.2779541015625,1.212890625,-5.251908396946565,17.916030534351144,-77.86259541984732
-0.31640625,-0.136962890625,1.1197509765625,-70.22900763358778,-17.50381679389313,-39.82442748091603
-0.178466796875,-0.0115966796875,0.925048828125,-3.687022900763359,-61.778625954198475,-2.122137404580153
-0.140869140625,-0.043212890625,0.9208984375,18.33587786259542,-62.12977099236641,-4.709923664122138
-0.009765625,-0.025634765625,0.8873291015625,44.038167938931295,-88.99236641221374,7.251908396946565
0.126953125,0.0684814453125,0.5311279296875,-26.442748091603054,-50.48854961832061,-18.236641221374047
0.1231689453125,-0.186767578125,0.849365234375,-1.381679389312977,-10.541984732824428,-0.2900763358778626
0.173095703125,0.018798828125,0.8155517578125,8.694656488549619,-31.717557251908396,0.7404580152671756
0.3017578125,0.0390625,0.712646484375,-4.870229007633588,-7.977099236641221,2.1908396946564888
0.241943359375,0.078857421875,0.451171875,55.58015267175573,-9.946564885496183,23.206106870229007
0.2113037109375,-0.0712890625,0.4637451171875,-2.5419847328244276,84.82442748091603,-5.778625954198473
-0.11328125,0.3409423828125,1.063232421875,94.93129770992367,27.31297709923664,-13.816793893129772
-0.1793212890625,0.38330078125,1.1851806640625,73.55725190839695,70.85496183206106,-31.061068702290076
-0.241943359375,0.3682861328125,1.13232421875,-57.18320610687023,53.70229007633588,-6.442748091603053
-0.272216796875,0.344970703125,1.069091796875,16.6793893129771,-6.213740458015267,6.450381679389313
-0.19970703125,0.3883056640625,1.0133056640625,19.404580152671755,-17.96946564885496,6.312977099236641
-0.2103271484375,0.456298828125,1.168212890625,5.206106870229007,-24.870229007633586,22.99236641221374
-0.159912109375,0.4224853515625,1.175048828125,-1.4809160305343512,-64.08396946564885,24.763358778625953
-0.0338134765625,0.3853759765625,0.9949951171875,-20.47328244274809,-77.1526717557252,17.862595419847327
0.1485595703125,0.3470458984375,0.835693359375,-16.366412213740457,-81.17557251908397,11.412213740458014
0.19677734375,0.244873046875,0.688720703125,-19.15267175572519,-45.58015267175573,9.938931297709924
0.33447265625,0.1324462890625,0.581787109375,-18.83969465648855,-43.083969465648856,5.488549618320611
0.369140625,0.0465087890625,0.6666259765625,-10.938931297709924,-19.374045801526716,5.229007633587786
0.439453125,0.0855712890625,0.673095703125,-0.37404580152671757,-7.4961832061068705,-0.46564885496183206
0.4412841796875,0.1253662109375,0.5899658203125,1.381679389312977,5.221374045801527,2.0916030534351147
0.451171875,0.1158447265625,0.6007080078125,-8.244274809160306,31.633587786259543,-9.221374045801527
0.3284912109375,0.1324462890625,0.7327880859375,-8.083969465648854,48.47328244274809,-13.580152671755725
0.18798828125,0.1900634765625,0.645263671875,-6.320610687022901,64.00763358778626,4.801526717557252
0.08544921875,0.1737060546875,0.8983154296875,14.053435114503817,67.98473282442748,-18.450381679389313
-0.114013671875,0.37646484375,0.9271240234375,21.49618320610687,13.80916030534351,0.7022900763358778
-0.095458984375,0.408935546875,1.259521484375,49.16793893129771,45.74045801526717,-16.572519083969464
-0.14111328125,0.4566650390625,1.21923828125,8.595419847328245,17.603053435114504,-4.33587786259542
-0.1568603515625,0.431884765625,1.0137939453125,8.419847328244275,-14.770992366412214,10.061068702290076
-0.1512451171875,0.44189453125,0.9056396484375,-2.4427480916030535,-14.541984732824428,9.977099236641221
-0.110595703125,0.305419921875,1.0009765625,-30.85496183206107,-16.14503816793893,21.740458015267176
-0.1009521484375,0.3494873046875,1.04443359375,-16.977099236641223,-44.81679389312977,20.389312977099237
-0.0491943359375,0.333251953125,0.903564453125,-34.465648854961835,-69.33587786259542,7.00763358778626
0.049560546875,0.235107421875,0.9339599609375,-27.022900763358777,-81.47328244274809,5.931297709923665
0.241943359375,0.137939453125,0.739501953125,-18.572519083969464,-67.80152671755725,3.1297709923664123
0.3056640625,0.076416015625,0.67919921875,-5.076335877862595,-47.06870229007634,-4.709923664122138
0.3623046875,0.1094970703125,0.59619140625,10.229007633587786,-49.412213740458014,-3.9083969465648853
0.4718017578125,0.135009765625,0.6251220703125,-1.4580152671755726,-14.053435114503817,0.6793893129770993
0.492431640625,0.149169921875,0.683837890625,-2.9236641221374047,0.6335877862595419,-2.381679389312977
0.4393310546875,0.117431640625,0.62060546875,1.4045801526717556,6.66412213740458,-0.4198473282442748
0.4561767578125,0.0916748046875,0.4609375,-15.610687022900763,61.99236641221374,-13.641221374045802
0.1907958984375,0.099365234375,0.6832275390625,10.381679389312977,88.13740458015268,-9.709923664122137
0.014892578125,0.201904296875,0.92041015625,2.9770992366412212,53.19847328244275,-11.206106870229007
-0.0487060546875,0.15576171875,1.0262451171875,-1.1221374045801527,71.30534351145039,-11.099236641221374
-0.0487060546875,0.1661376953125,1.047607421875,5.083969465648855,60.16030534351145,-22.84732824427481
-0.2509765625,0.2958984375,1.2415771484375,-3.5572519083969465,46.213740458015266,-15.954198473282442
-0.3311767578125,0.2667236328125,1.0963134765625,17.16030534351145,9.931297709923664,-12.80916030534351
-0.2059326171875,0.176025390625,0.8818359375,-5.061068702290076,-16.480916030534353,2.5572519083969465
-0.193603515625,0.2559814453125,0.952880859375,-3.381679389312977,-10.648854961832061,-0.9541984732824428
-0.203125,0.364501953125,1.172607421875,0.7022900763358778,-31.061068702290076,7.793893129770993
-0.1014404296875,0.3623046875,1.0848388671875,-13.358778625954198,-29.396946564885496,10.15267175572519
-0.0819091796875,0.28662109375,1.06982421875,-17.587786259541986,-36.603053435114504,11.755725190839694
-0.00146484375,0.295166015625,0.987548828125,-4.564885496183206,-92.80916030534351,7.7251908396946565
0.2269287109375,0.17724609375,0.7081298828125,1.5648854961832062,-65.45801526717557,12.801526717557252
0.3162841796875,0.1302490234375,0.567138671875,13.450381679389313,-47.33587786259542,22.50381679389313
0.4141845703125,0.158203125,0.447021484375,-17.18320610687023,-21.755725190839694,11.099236641221374
0.5103759765625,0.10400390625,0.6934814453125,-4.541984732824427,-12.15267175572519,-0.366412213740458
0.5350341796875,0.1077880859375,0.6510009765625,-4.1679389312977095,-1.3435114503816794,-4.603053435114504
0.458251953125,0.1480712890625,0.619873046875,-16.9618320610687,4.778625954198473,-2.6106870229007635
0.53857421875,0.096923828125,0.42822265625,-30.33587786259542,25.221374045801525,-5.358778625954199
0.33154296875,0.1207275390625,0.6268310546875,-20.938931297709924,75.14503816793894,-17.33587786259542
0.115478515625,0.088623046875,0.7957763671875,-12.50381679389313,81.67175572519083,-11.786259541984732
-0.0506591796875,0.1517333984375,0.8883056640625,7.717557251908397,80.54961832061069,0.7404580152671756
-0.1402587890625,0.295166015625,0.9935302734375,-9.183206106870228,75.96946564885496,-8.206106870229007
-0.2806396484375,0.2764892578125,1.29345703125,11.16793893129771,45.6412213740458,-12.969465648854962
-0.2491455078125,0.262939453125,1.19677734375,-2.3206106870229006,20.206106870229007,1.3282442748091603
-0.2540283203125,0.20263671875,0.94140625,1.6106870229007633,-1.5648854961832062,4.7251908396946565
-0.220703125,0.17041015625,0.9610595703125,-1.5725190839694656,-9.419847328244275,1.702290076335878
-0.2840576171875,0.2679443359375,1.35205078125,-0.9389312977099237,-30.129770992366414,1.8854961832061068
-0.192626953125,0.2166748046875,1.129150390625,-27.358778625954198,-78.48091603053435,13.595419847328245
-0.1097412109375,0.2347412109375,1.1025390625,-0.366412213740458,-83.69465648854961,24.053435114503817
0.12060546875,0.1036376953125,0.7677001953125,1.1068702290076335,-92.5114503816794,21.251908396946565
0.3492431640625,0.0311279296875,0.5606689453125,-24.51145038167939,-91.07633587786259,3.519083969465649
0.388427734375,0.0904541015625,0.3851318359375,-14.412213740458014,-46.2442748091603,12.229007633587786
0.548828125,0.0,0.52197265625,-13.664122137404581,-0.3435114503816794,11.580152671755725
0.478515625,0.0511474609375,0.8780517578125,0.2824427480916031,-2.6793893129770994,-8.694656488549619
0.4837646484375,0.05322265625,0.8935546875,-3.519083969465649,0.10687022900763359,-4.1679389312977095
0.5142822265625,-0.0228271484375,0.7694091796875,1.9083969465648856,-1.251908396946565,-2.6106870229007635
0.434326171875,-0.05517578125,0.4954833984375,9.572519083969466,18.908396946564885,-6.213740458015267
0.362548828125,-0.0361328125,0.1873779296875,-4.450381679389313,78.55725190839695,-15.534351145038167
0.1046142578125,0.078857421875,0.614501953125,-31.603053435114504,87.0381679389313,-36.7557251908397
-0.09814453125,0.2449951171875,1.1749267578125,-0.9694656488549618,109.82442748091603,-33.091603053435115
-0.2012939453125,0.2659912109375,1.3831787109375,-1.9083969465648856,54.908396946564885,-19.549618320610687
-0.1851806640625,0.2066650390625,1.2008056640625,-14.236641221374045,36.534351145038165,-2.2290076335877864
-0.2276611328125,0.1326904296875,1.433349609375,4.6183206106870225,-27.267175572519083,12.51908396946565
-0.18408203125,0.049072265625,0.8721923828125,-9.893129770992367,-4.3893129770992365,-6.564885496183206
-0.2633056640625,0.170166015625,1.3541259765625,2.83206106870229,-11.870229007633588,-6.221374045801527
-0.282470703125,0.25439453125,1.3065185546875,5.145038167938932,-55.37404580152672,17.984732824427482
-0.1358642578125,0.17138671875,1.152587890625,1.3740458015267176,-88.70229007633588,18.48854961832061
0.059326171875,0.1683349609375,0.984375,0.7480916030534351,-94.93129770992367,20.83969465648855
0.298095703125,-0.016357421875,0.7132568359375,-30.15267175572519,-60.900763358778626,5.969465648854962
0.0479736328125,0.355224609375,-0.175048828125,-43.9236641221374,54.3206106870229,61.847328244274806
0.2584228515625,-0.47705078125,0.881591796875,-55.778625954198475,52.0,56.038167938931295
0.44677734375,-0.549072265625,0.9970703125,-4.404580152671755,-3.6106870229007635,-1.6564885496183206
0.25830078125,-0.1160888671875,1.017822265625,-26.259541984732824,-12.0,-35.32824427480916
0.2183837890625,-0.09912109375,0.7117919921875,-18.702290076335878,-21.366412213740457,-21.85496183206107
0.2816162109375,-0.2269287109375,0.8660888671875,16.12213740458015,-17.389312977099237,-18.99236641221374
0.4111328125,-0.2999267578125,0.836669921875,-4.351145038167939,1.465648854961832,-11.412213740458014
0.3875732421875,-0.2874755859375,0.8118896484375,-2.198473282442748,2.2290076335877864,-7.961832061068702
0.373291015625,-0.27783203125,0.851318359375,33.52671755725191,-35.45038167938932,-1.7709923664122138
0.45947265625,-0.1588134765625,0.7232666015625,42.045801526717554,-15.068702290076336,-8.305343511450381
0.4378662109375,-0.0511474609375,0.8560791015625,27.221374045801525,3.6106870229007635,0.2748091603053435
0.3382568359375,0.001708984375,0.53125,-3.312977099236641,37.12977099236641,4.8320610687022905
0.294189453125,-0.1187744140625,0.5220947265625,2.6793893129770994,84.51908396946565,4.641221374045801
0.196533203125,0.02880859375,0.7530517578125,9.67175572519084,82.36641221374046,-7.099236641221374
0.002197265625,0.00732421875,0.867919921875,13.694656488549619,73.74045801526718,-19.946564885496183
-0.085205078125,0.1492919921875,1.07568359375,35.961832061068705,43.94656488549618,-16.27480916030534
-0.177734375,0.306640625,1.1256103515625,-15.732824427480915,65.49618320610686,-28.015267175572518
-0.2938232421875,0.19970703125,1.2340087890625,-11.969465648854962,34.10687022900763,-14.595419847328245
-0.30908203125,0.1893310546875,1.007080078125,-5.511450381679389,8.427480916030534,-2.7022900763358777
-0.3515625,0.17041015625,1.0592041015625,-9.557251908396946,-12.610687022900763,7.488549618320611
-0.2501220703125,0.1328125,1.0194091796875,-10.877862595419847,-44.36641221374046,10.145038167938932
-0.1143798828125,0.0572509765625,1.004150390625,-15.259541984732824,-49.969465648854964,1.1526717557251909
-0.1109619140625,0.1290283203125,0.9539794921875,-12.679389312977099,-48.595419847328245,1.2595419847328244
0.07421875,0.080810546875,0.912841796875,-0.25190839694656486,-51.396946564885496,-4.129770992366412
0.0765380859375,0.0462646484375,0.9937744140625,6.717557251908397,-46.778625954198475,-1.9541984732824427
0.181396484375,-0.1500244140625,1.0010986328125,16.396946564885496,-69.80152671755725,9.51908396946565
0.36279296875,0.1585693359375,0.3927001953125,-3.0763358778625953,-37.20610687022901,25.076335877862597
0.3914794921875,-0.064453125,0.7562255859375,-3.854961832061069,-14.587786259541986,4.473282442748092
0.4385986328125,0.0037841796875,0.7340087890625,-9.068702290076336,-14.427480916030534,-1.534351145038168
0.488037109375,-0.0152587890625,0.6951904296875,-11.412213740458014,2.7557251908396947,-4.961832061068702
0.44921875,-0.0291748046875,0.5919189453125,-10.885496183206106,14.0,-9.801526717557252
0.3924560546875,-0.0828857421875,0.69775390625,-13.80916030534351,30.557251908396946,-21.69465648854962
0.352294921875,0.09912109375,0.572509765625,-34.847328244274806,51.81679389312977,-27.52671755725191
0.0518798828125,0.1739501953125,0.8504638671875,42.16030534351145,59.083969465648856,-12.595419847328245
0.024169921875,0.0640869140625,0.938232421875,31.30534351145038,68.2442748091603,-4.793893129770993
-0.0457763671875,0.3177490234375,1.0592041015625,29.740458015267176,50.05343511450382,4.00763358778626
-0.153076171875,0.361572265625,1.2618408203125,55.458015267175576,6.793893129770993,4.312977099236641
-0.0440673828125,0.4530029296875,1.0211181640625,122.51908396946565,-61.7557251908397,14.80916030534351
0.02099609375,0.533203125,0.8543701171875,-149.12213740458014,92.94656488549619,-34.49618320610687
-0.2789306640625,0.5042724609375,1.4920654296875,-20.80916030534351,3.8625954198473282,12.32824427480916
-0.2672119140625,0.3392333984375,1.1219482421875,-49.70992366412214,-67.83969465648855,16.03053435114504
-0.0999755859375,0.23828125,0.831298828125,-48.83969465648855,-93.87022900763358,16.580152671755727
0.1265869140625,0.04541015625,0.6932373046875,-22.068702290076335,-57.7557251908397,9.206106870229007
0.2178955078125,0.0355224609375,0.63525390625,-18.076335877862597,-58.98473282442748,-9.290076335877863
0.246337890625,0.026123046875,0.8507080078125,-12.725190839694656,-34.49618320610687,0.21374045801526717
0.380859375,-0.0296630859375,0.5560302734375,4.6106870229007635,-30.931297709923665,1.1526717557251909
0.4107666015625,0.0198974609375,1.0035400390625,8.587786259541986,-18.83206106870229,-14.679389312977099
0.373779296875,-0.0316162109375,0.914794921875,14.709923664122137,-24.427480916030536,4.175572519083969
0.44580078125,0.07421875,0.6202392578125,16.83969465648855,-21.946564885496183,8.572519083969466
0.38427734375,0.0181884765625,0.3062744140625,8.610687022900763,1.4961832061068703,14.412213740458014
0.310546875,-0.053955078125,0.1663818359375,-10.679389312977099,40.038167938931295,-6.137404580152672
0.0367431640625,0.12841796875,0.7037353515625,-33.12977099236641,148.90076335877862,-45.6793893129771
0.099609375,0.5003662109375,1.8358154296875,-3.3435114503816794,107.93129770992367,-23.549618320610687
-0.2203369140625,0.5721435546875,1.4486083984375,13.183206106870228,-29.091603053435115,14.65648854961832
-0.2122802734375,0.20458984375,1.1285400390625,-12.549618320610687,-66.92366412213741,46.458015267175576
0.102294921875,0.12451171875,0.5670166015625,-3.9083969465648853,-24.022900763358777,11.305343511450381
0.2091064453125,0.158203125,0.73974609375,14.603053435114504,0.8320610687022901,-19.358778625954198
0.1268310546875,0.2469482421875,0.9276123046875,50.35114503816794,-5.549618320610687,-28.068702290076335
0.113037109375,0.37158203125,0.85009765625,40.221374045801525,-12.748091603053435,-9.778625954198473
0.205078125,-0.0235595703125,0.9014892578125,21.38167938931298,-47.49618320610687,-112.59541984732824
-0.181640625,0.456298828125,0.837646484375,23.717557251908396,-108.19083969465649,-199.29007633587787
-0.1746826171875,0.8519287109375,0.657958984375,1.2213740458015268,-54.99236641221374,-107.17557251908397
-0.1591796875,1.0059814453125,0.5538330078125,40.32824427480916,26.83969465648855,28.87786259541985
-0.09326171875,0.7607421875,0.7177734375,10.213740458015268,42.54961832061068,63.67175572519084
0.02099609375,0.6739501953125,0.7867431640625,-4.625954198473282,29.83969465648855,60.47328244274809
-0.026611328125,0.72705078125,0.6898193359375,-35.97709923664122,9.229007633587786,77.40458015267176
-0.019775390625,0.6629638671875,0.4715576171875,9.793893129770993,79.61068702290076,130.9618320610687
-0.096435546875,0.4486083984375,0.740478515625,-27.931297709923665,87.76335877862596,127.54198473282443
-0.1728515625,0.3536376953125,1.0150146484375,-40.61068702290076,75.29007633587786,108.48091603053435
0.0504150390625,-0.0784912109375,1.042236328125,-54.98473282442748,14.687022900763358,51.85496183206107
0.0965576171875,-0.01953125,0.9847412109375,-18.458015267175572,-14.511450381679388,-12.793893129770993
0.0694580078125,0.2652587890625,0.94970703125,8.48091603053435,-8.900763358778626,-14.17557251908397
0.08544921875,0.0867919921875,1.0213623046875,26.572519083969464,-23.129770992366414,-32.47328244274809
0.0423583984375,0.164794921875,0.960693359375,27.374045801526716,-60.7557251908397,-62.778625954198475
0.051025390625,0.172607421875,0.8792724609375,-22.076335877862597,-119.08396946564885,-144.58778625954199
0.0205078125,0.630615234375,0.532958984375,-36.99236641221374,-109.93129770992367,-161.04580152671755
0.0521240234375,0.6513671875,0.5513916015625,27.519083969465647,19.763358778625953,-85.90076335877863
-0.09228515625,0.821044921875,0.930908203125,-46.61832061068702,-24.38167938931298,-54.45038167938932
-0.0748291015625,0.860595703125,0.787109375,-0.9847328244274809,8.083969465648854,23.366412213740457
0.0936279296875,0.506591796875,0.697998046875,-1.1450381679389312,10.17557251908397,33.66412213740458
0.1016845703125,0.4677734375,0.811767578125,2.6259541984732824,11.534351145038167,33.908396946564885
0.0477294921875,0.687744140625,0.65087890625,3.7251908396946565,28.763358778625953,55.20610687022901
-0.065673828125,0.7996826171875,0.5064697265625,27.412213740458014,90.42748091603053,110.67175572519083
-0.1761474609375,0.564208984375,0.799560546875,-17.984732824427482,98.26717557251908,116.06106870229007
-0.1092529296875,0.2193603515625,0.933349609375,-57.35114503816794,55.81679389312977,94.1145038167939
-0.0328369140625,0.3267822265625,0.8375244140625,-47.038167938931295,34.76335877862596,55.38931297709924
0.0333251953125,0.04296875,1.0792236328125,-42.847328244274806,7.114503816793893,16.068702290076335
0.00439453125,0.159912109375,0.9892578125,-6.755725190839694,-3.4885496183206106,-7.66412213740458
-0.0146484375,0.291015625,0.932861328125,12.885496183206106,-8.793893129770993,-10.045801526717558
0.0272216796875,0.222900390625,0.927978515625,19.50381679389313,-15.625954198473282,-15.206106870229007
0.0252685546875,0.1119384765625,0.9915771484375,32.31297709923664,-45.969465648854964,-51.12977099236641
-0.0638427734375,0.309326171875,0.7757568359375,70.14503816793894,-59.458015267175576,-84.94656488549619
-0.1171875,0.5313720703125,0.60302734375,69.5114503816794,-63.61068702290076,-92.58015267175573
-0.1666259765625,0.6483154296875,0.5203857421875,30.49618320610687,-83.1145038167939,-110.80152671755725
-0.19775390625,1.03857421875,0.370849609375,-10.374045801526718,-50.67175572519084,-88.05343511450381
-0.1982421875,1.1510009765625,0.4417724609375,-4.32824427480916,-19.396946564885496,-19.068702290076335
-0.1002197265625,0.737548828125,0.5330810546875,-12.198473282442748,-2.9923664122137406,18.404580152671755
-0.0704345703125,0.75830078125,0.5648193359375,-9.770992366412214,7.282442748091603,19.946564885496183
-0.102783203125,0.9090576171875,0.52734375,-38.3206106870229,12.557251908396946,40.41984732824427
-0.0880126953125,0.7493896484375,0.4788818359375,-44.94656488549618,38.725190839694655,73.45038167938931
-0.124267578125,0.615478515625,0.606689453125,-71.49618320610686,57.213740458015266,78.22137404580153
-0.13720703125,0.2724609375,0.794921875,-147.03053435114504,56.88549618320611,79.37404580152672
-0.0733642578125,0.0347900390625,1.10986328125,-50.770992366412216,35.23664122137404,66.09160305343511
0.021728515625,-0.069091796875,1.0247802734375,-52.908396946564885,-1.4351145038167938,26.51145038167939
0.0509033203125,0.0133056640625,0.90576171875,-13.770992366412214,-3.5572519083969465,0.8473282442748091
-0.0018310546875,0.079833984375,0.999755859375,29.519083969465647,-6.656488549618321,-22.282442748091604
-0.0233154296875,0.1539306640625,0.9925537109375,61.56488549618321,-20.480916030534353,-39.12213740458015
-0.0745849609375,0.171875,0.941162109375,41.6793893129771,-47.48854961832061,-72.50381679389314
-0.08642578125,0.21435546875,0.7738037109375,35.25190839694657,-76.25190839694656,-101.66412213740458
-0.14013671875,0.4583740234375,0.588134765625,21.480916030534353,-61.81679389312977,-131.16030534351145
-0.1944580078125,1.0576171875,0.58056640625,-3.5267175572519083,-22.770992366412212,-84.68702290076335
-0.1044921875,0.7623291015625,0.75048828125,-11.48091603053435,-11.290076335877863,-16.091603053435115
-0.0780029296875,0.661865234375,0.6961669921875,0.19083969465648856,-2.404580152671756,9.526717557251908
-0.0413818359375,0.68408203125,0.7259521484375,11.01526717557252,16.748091603053435,29.33587786259542
-0.1485595703125,0.912841796875,0.6116943359375,-12.595419847328245,21.061068702290076,60.80152671755725
-0.1328125,0.80712890625,0.5760498046875,-42.732824427480914,90.79389312977099,96.98473282442748
-0.1893310546875,0.4688720703125,0.6519775390625,-72.3969465648855,51.229007633587784,137.06106870229007
-0.1756591796875,0.2813720703125,0.77490234375,-51.16030534351145,50.6793893129771,116.47328244274809
-0.0054931640625,-0.2586669921875,1.163818359375,-38.76335877862596,28.96946564885496,68.5114503816794
0.033203125,-0.06103515625,1.0003662109375,-12.435114503816793,-12.564885496183207,-2.3435114503816794
0.049560546875,0.131103515625,0.888916015625,-1.3053435114503817,3.015267175572519,1.213740458015267
-0.00390625,0.1168212890625,1.06298828125,19.091603053435115,-17.786259541984734,-25.931297709923665
0.0423583984375,0.0233154296875,0.9808349609375,35.083969465648856,-37.038167938931295,-51.587786259541986
-0.0189208984375,-0.1129150390625,0.9595947265625,34.01526717557252,-69.90076335877863,-115.32824427480917
-0.161865234375,0.5423583984375,0.5792236328125,22.19083969465649,-60.70992366412214,-147.78625954198472
-0.19873046875,0.802978515625,0.68115234375,-9.625954198473282,-39.54961832061068,-154.9770992366412
-0.0784912109375,0.70947265625,0.7684326171875,-27.625954198473284,-43.045801526717554,-98.67175572519083
-0.1339111328125,0.736572265625,0.8204345703125,1.916030534351145,-6.259541984732825,-18.748091603053435
-0.061279296875,0.5531005859375,0.7698974609375,4.801526717557252,0.8473282442748091,18.251908396946565
0.0185546875,0.526123046875,0.7596435546875,6.938931297709924,20.450381679389313,32.725190839694655
-0.1805419921875,0.7633056640625,0.73046875,52.3206106870229,62.16030534351145,85.73282442748092
-0.23291015625,0.9052734375,0.661865234375,-25.923664122137403,72.20610687022901,124.03053435114504
-0.141357421875,0.4359130859375,0.770751953125,-59.465648854961835,37.50381679389313,127.63358778625954
-0.1263427734375,0.2293701171875,0.790283203125,-40.45038167938932,47.49618320610687,128.45801526717557
0.044189453125,-0.09814453125,0.9398193359375,-39.70992366412214,37.30534351145038,77.69465648854961
0.0595703125,-0.16796875,1.065185546875,-23.3206106870229,19.717557251908396,20.977099236641223
0.030029296875,0.147705078125,0.92236328125,-12.732824427480915,6.32824427480916,8.007633587786259
0.0455322265625,0.0302734375,1.0496826171875,13.022900763358779,-3.1908396946564888,-10.625954198473282
0.0247802734375,-0.0048828125,1.017333984375,34.587786259541986,-22.82442748091603,-30.46564885496183
-0.0009765625,0.077880859375,0.908935546875,62.9236641221374,-49.29770992366412,-62.11450381679389
-0.0694580078125,0.232421875,0.8021240234375,31.236641221374047,-76.38931297709924,-107.87786259541984
-0.1112060546875,0.5830078125,0.6414794921875,26.19083969465649,-76.00763358778626,-113.27480916030534
-0.0654296875,0.7620849609375,0.568359375,16.9618320610687,-27.587786259541986,-118.37404580152672
-0.110107421875,0.873291015625,0.671630859375,-14.351145038167939,-29.9618320610687,-95.3206106870229
-0.11767578125,0.7899169921875,0.745361328125,30.923664122137403,5.282442748091603,3.900763358778626
-0.083740234375,0.762451171875,0.7210693359375,-6.221374045801527,7.8396946564885495,27.17557251908397
-0.12451171875,0.87646484375,0.6304931640625,-11.236641221374045,10.541984732824428,59.961832061068705
-0.031982421875,0.7855224609375,0.657958984375,-24.267175572519083,14.404580152671755,79.45801526717557
0.0352783203125,0.6143798828125,0.6904296875,-21.366412213740457,20.068702290076335,89.74045801526718
0.1160888671875,0.3929443359375,0.73779296875,-9.282442748091603,27.709923664122137,83.80916030534351
0.1043701171875,0.4984130859375,0.6622314453125,-5.763358778625954,49.969465648854964,100.7175572519084
0.2352294921875,-0.009765625,1.1021728515625,-24.53435114503817,20.35114503816794,46.35114503816794
0.1875,0.1077880859375,0.861083984375,4.061068702290076,-17.244274809160306,-26.82442748091603
0.1663818359375,0.7882080078125,0.569580078125,30.31297709923664,-4.847328244274809,-64.04580152671755
0.070556640625,0.890869140625,0.692626953125,-13.236641221374045,12.694656488549619,-10.038167938931299
-0.16259765625,1.01708984375,0.4627685546875,-35.82442748091603,70.26717557251908,94.09160305343511
-0.353515625,0.59375,0.6629638671875,-169.04580152671755,76.44274809160305,130.50381679389312
-0.2041015625,-0.755126953125,1.17919921875,-80.21374045801527,64.3206106870229,124.37404580152672
-0.2572021484375,-0.1436767578125,0.7578125,-27.374045801526716,45.89312977099237,60.19847328244275
-0.247802734375,-0.501708984375,1.1280517578125,5.740458015267175,-12.709923664122137,13.473282442748092
-0.181640625,-0.1527099609375,1.0257568359375,30.84732824427481,-39.89312977099237,-40.79389312977099
-0.1490478515625,-0.1209716796875,1.070068359375,69.21374045801527,-42.83206106870229,-35.786259541984734
-0.1346435546875,-0.140380859375,1.0289306640625,102.98473282442748,-112.03053435114504,-113.52671755725191
-0.0457763671875,0.513427734375,0.608642578125,52.12213740458015,-101.6412213740458,-171.3053435114504
0.0294189453125,0.7109375,0.422119140625,5.526717557251908,-54.79389312977099,-110.25190839694656
-0.047607421875,0.69873046875,0.5108642578125,16.458015267175572,0.8396946564885496,-89.36641221374046
-0.2647705078125,1.0634765625,0.56884765625,-12.17557251908397,4.0458015267175576,10.442748091603054
0.0382080078125,0.7073974609375,0.6385498046875,2.595419847328244,13.0,12.061068702290076
-0.0750732421875,0.8043212890625,0.6544189453125,-6.916030534351145,14.076335877862595,18.72519083969466
-0.1077880859375,0.8826904296875,0.498291015625,-81.17557251908397,56.38167938931298,57.458015267175576
-0.1507568359375,0.7755126953125,0.39501953125,-37.282442748091604,114.81679389312977,112.59541984732824
-0.199462890625,0.339111328125,0.693115234375,-107.64885496183206,14.572519083969466,236.12977099236642
-0.387939453125,-0.1871337890625,0.8489990234375,-163.793893129771,65.87022900763358,235.0381679389313
-0.357421875,-0.390869140625,1.169189453125,-48.725190839694655,43.83969465648855,66.20610687022901
-0.294677734375,-0.4404296875,1.276611328125,4.320610687022901,-38.541984732824424,-37.18320610687023
-0.209716796875,0.1728515625,1.0238037109375,1.5114503816793894,-46.954198473282446,-54.05343511450382
-0.0740966796875,-0.0875244140625,0.99951171875,20.244274809160306,-46.74809160305343,-67.47328244274809
-0.119384765625,-0.1171875,0.9842529296875,51.221374045801525,-58.16793893129771,-96.29007633587786
-0.0528564453125,0.043212890625,0.8646240234375,70.86259541984732,-77.09160305343511,-127.29007633587786
-0.0693359375,0.4027099609375,0.599365234375,29.091603053435115,-92.38167938931298,-162.25190839694656
-0.158935546875,0.6976318359375,0.4722900390625,12.297709923664122,-52.06870229007634,-174.5648854961832
-0.12841796875,1.235595703125,0.5574951171875,-10.717557251908397,-9.755725190839694,-35.900763358778626
0.023681640625,0.7222900390625,0.7684326171875,-18.580152671755727,-2.7251908396946565,16.53435114503817
-0.0806884765625,0.67578125,0.759765625,-9.954198473282442,29.404580152671755,9.938931297709924
-0.0350341796875,0.7371826171875,0.708251953125,-26.801526717557252,10.076335877862595,38.38167938931298
-0.037353515625,0.661865234375,0.72265625,-23.061068702290076,9.625954198473282,66.0
-0.046630859375,0.5224609375,0.568359375,-56.534351145038165,21.061068702290076,89.3969465648855
-0.033203125,0.2406005859375,0.519287109375,-42.70992366412214,62.83969465648855,99.06870229007633
-0.2176513671875,-0.0291748046875,0.9415283203125,-32.343511450381676,106.83969465648855,86.87786259541984
-0.2552490234375,-0.4185791015625,1.2705078125,-58.6793893129771,97.4885496183206,79.74809160305344
-0.3291015625,-0.124755859375,1.290771484375,-47.64885496183206,-18.091603053435115,-1.3206106870229009
-0.196533203125,0.1619873046875,0.808837890625,-2.9618320610687023,-22.015267175572518,-12.17557251908397
-0.19873046875,-0.2469482421875,1.1705322265625,35.81679389312977,-31.52671755725191,-25.297709923664122
-0.1795654296875,-0.14990234375,0.9888916015625,44.58015267175573,-73.98473282442748,-77.77862595419847
-0.172119140625,0.15673828125,0.975341796875,39.17557251908397,-80.63358778625954,-92.23664122137404
-0.078857421875,0.3687744140625,0.7900390625,32.54961832061068,-93.33587786259542,-89.48091603053435
0.0838623046875,0.7181396484375,0.2886962890625,-13.534351145038167,-46.81679389312977,-75.96946564885496
0.0782470703125,0.8040771484375,0.44580078125,-20.16793893129771,30.00763358778626,-15.076335877862595
0.144775390625,0.5302734375,0.6595458984375,-14.16793893129771,37.80152671755725,-16.480916030534353
-0.1800537109375,0.7137451171875,1.5400390625,-32.51908396946565,51.343511450381676,-26.68702290076336
-0.177490234375,0.51708984375,1.206787109375,-34.86259541984733,-54.603053435114504,23.69465648854962
0.1171875,0.20068359375,0.7083740234375,-45.20610687022901,-44.44274809160305,11.618320610687023
0.4566650390625,0.03857421875,0.929931640625,-106.03053435114504,-70.33587786259542,49.66412213740458
0.1912841796875,-0.123046875,-0.02197265625,-41.961832061068705,55.274809160305345,71.83206106870229
0.2501220703125,-0.3304443359375,0.9278564453125,-4.488549618320611,44.63358778625954,10.183206106870228
0.1097412109375,-0.1632080078125,1.192138671875,-5.076335877862595,-0.6641221374045801,-11.351145038167939
0.1888427734375,-0.0286865234375,0.9140625,-6.641221374045801,-15.992366412213741,-11.977099236641221
0.26513671875,-0.082275390625,0.630615234375,-14.49618320610687,-7.412213740458015,-13.259541984732824
0.1671142578125,0.01318359375,1.0670166015625,14.145038167938932,4.396946564885496,-25.30534351145038
0.15625,0.05224609375,1.0252685546875,0.29770992366412213,-24.87786259541985,-7.99236641221374
0.274658203125,0.0601806640625,0.8822021484375,-1.5038167938931297,-29.213740458015266,-2.0763358778625953
0.267822265625,-0.045654296875,0.83154296875,1.633587786259542,-12.427480916030534,12.076335877862595
0.2901611328125,0.0452880859375,0.8466796875,2.8473282442748094,-42.221374045801525,3.816793893129771
0.42919921875,-0.045166015625,0.7747802734375,7.6183206106870225,-18.6793893129771,6.564885496183206
0.420654296875,0.012939453125,0.8275146484375,10.572519083969466,-20.49618320610687,1.3740458015267176
0.52978515625,0.0196533203125,0.59814453125,7.625954198473282,-6.938931297709924,1.3587786259541985
0.4847412109375,0.0111083984375,0.5433349609375,4.549618320610687,14.038167938931299,-7.229007633587786
0.36279296875,-0.09423828125,0.47021484375,23.938931297709924,41.36641221374046,-26.69465648854962
0.2647705078125,0.0400390625,0.4754638671875,-18.564885496183205,99.0,-20.541984732824428
-0.133544921875,0.1494140625,1.2286376953125,-25.374045801526716,91.22900763358778,-15.091603053435115
-0.204345703125,0.17626953125,1.3624267578125,12.007633587786259,38.11450381679389,8.297709923664122
-0.0899658203125,-0.005615234375,1.0311279296875,9.709923664122137,21.19083969465649,3.236641221374046
-0.1005859375,0.052734375,0.9710693359375,15.374045801526718,22.977099236641223,-1.381679389312977
-0.207275390625,0.1832275390625,1.319091796875,14.717557251908397,8.091603053435115,-1.5114503816793894
-0.224853515625,0.2440185546875,1.4249267578125,12.946564885496183,-45.93129770992366,16.610687022900763
-0.0941162109375,0.1942138671875,1.0697021484375,-2.0610687022900764,-82.45801526717557,23.717557251908396
0.0662841796875,0.156005859375,0.847900390625,-9.49618320610687,-70.09923664122137,25.908396946564885
0.288330078125,0.059326171875,0.7540283203125,-23.923664122137403,-43.18320610687023,18.557251908396946
0.32421875,0.16455078125,0.483154296875,-53.37404580152672,-52.89312977099237,20.541984732824428
0.42626953125,-0.218994140625,0.7471923828125,-38.93893129770992,-4.900763358778626,6.0
0.354736328125,-0.0772705078125,0.8096923828125,4.351145038167939,-14.564885496183207,1.6717557251908397
0.4573974609375,-0.1444091796875,0.8072509765625,4.740458015267175,-5.641221374045801,1.9465648854961832
0.4356689453125,-0.042236328125,0.7835693359375,17.076335877862597,-13.053435114503817,-3.8473282442748094
0.46240234375,-0.0516357421875,0.7021484375,11.618320610687023,5.068702290076335,-1.4045801526717556
0.437255859375,-0.103515625,0.509521484375,25.53435114503817,23.801526717557252,-4.793893129770993
0.3436279296875,0.0931396484375,0.39501953125,-11.65648854961832,78.07633587786259,-38.99236641221374
0.0572509765625,0.2552490234375,0.9163818359375,-26.717557251908396,87.78625954198473,-36.80152671755725
-0.093505859375,0.2303466796875,1.0985107421875,10.969465648854962,65.16030534351145,-10.13740458015267
-0.1146240234375,0.2352294921875,0.92724609375,39.57251908396947,43.74809160305343,10.038167938931299
-0.149658203125,0.19775390625,1.1309814453125,22.99236641221374,56.00763358778626,-20.50381679389313
-0.215576171875,0.3564453125,1.2607421875,0.2595419847328244,18.977099236641223,-7.00763358778626
-0.1759033203125,0.27490234375,1.0841064453125,-5.603053435114504,-0.3969465648854962,1.6717557251908397
-0.2183837890625,0.3304443359375,1.072509765625,-6.244274809160306,-31.770992366412212,16.00763358778626
-0.119384765625,0.3148193359375,1.09228515625,-11.145038167938932,-42.06870229007634,23.755725190839694
-0.0347900390625,0.322998046875,0.9979248046875,-13.412213740458014,-59.57251908396947,23.923664122137403
0.0609130859375,0.27783203125,0.8953857421875,-9.458015267175572,-68.52671755725191,30.770992366412212
0.210205078125,0.1846923828125,0.842041015625,-8.709923664122137,-63.57251908396947,26.48854961832061
0.3817138671875,0.1087646484375,0.7459716796875,-34.732824427480914,-55.6412213740458,8.786259541984732
0.444091796875,-0.0389404296875,0.556396484375,-39.06106870229008,-25.213740458015266,16.641221374045802
0.4661865234375,-0.0152587890625,0.719970703125,-23.908396946564885,-18.541984732824428,7.67175572519084
0.5361328125,-0.0491943359375,0.7401123046875,-12.335877862595419,-20.87786259541985,5.580152671755725
0.5582275390625,-0.0247802734375,0.652587890625,-4.6106870229007635,-9.358778625954198,1.3740458015267176
0.5968017578125,-0.0093994140625,0.62353515625,0.15267175572519084,-5.595419847328245,-4.106870229007634
0.57666015625,0.015380859375,0.619140625,-6.129770992366412,12.625954198473282,-6.282442748091603
0.486572265625,-0.003662109375,0.511474609375,-9.267175572519085,37.05343511450382,-5.297709923664122
0.4527587890625,-0.0198974609375,0.616943359375,0.31297709923664124,50.404580152671755,-14.618320610687023
0.2672119140625,0.01806640625,0.8056640625,3.877862595419847,48.9236641221374,-13.526717557251908
0.20068359375,0.1026611328125,0.8724365234375,8.229007633587786,60.595419847328245,-21.396946564885496
0.1368408203125,0.158203125,0.95068359375,23.96946564885496,44.396946564885496,-23.977099236641223
0.0933837890625,0.32421875,0.96142578125,12.259541984732824,22.114503816793892,-24.52671755725191
0.061279296875,0.2864990234375,1.051025390625,-13.366412213740459,7.488549618320611,-16.83969465648855
0.01123046875,0.2291259765625,1.1083984375,12.061068702290076,5.374045801526718,-5.587786259541985
0.064208984375,0.2020263671875,1.050537109375,9.65648854961832,12.786259541984732,-0.19083969465648856
0.02734375,0.27490234375,1.189453125,-31.984732824427482,-57.94656488549618,1.5572519083969465
0.1297607421875,0.25341796875,1.10986328125,-15.801526717557252,-22.12213740458015,13.244274809160306
0.14404296875,0.227294921875,1.032470703125,-5.458015267175573,-24.259541984732824,25.18320610687023
0.212890625,0.2587890625,1.092529296875,9.977099236641221,-74.00763358778626,19.129770992366414
0.26904296875,0.11767578125,0.836181640625,15.267175572519085,-108.73282442748092,48.16793893129771
0.5194091796875,0.043212890625,0.596923828125,30.954198473282442,-92.97709923664122,41.14503816793893
0.6865234375,0.1070556640625,0.4521484375,7.984732824427481,-53.6412213740458,24.65648854961832
0.70263671875,0.0579833984375,0.4498291015625,25.259541984732824,-57.14503816793893,26.114503816793892
0.835205078125,-0.018798828125,0.1552734375,9.893129770992367,-17.404580152671755,-4.877862595419847
0.7584228515625,0.108154296875,0.255126953125,-3.2061068702290076,18.34351145038168,-21.206106870229007
0.6256103515625,0.1060791015625,0.4261474609375,7.984732824427481,45.412213740458014,-41.083969465648856
0.6253662109375,0.269287109375,0.5841064453125,6.145038167938932,67.98473282442748,-61.69465648854962
0.5230712890625,0.5501708984375,0.73583984375,-0.46564885496183206,61.83969465648855,-51.85496183206107
0.5797119140625,0.3424072265625,0.517333984375,-11.34351145038168,70.74809160305344,-49.282442748091604
0.1348876953125,0.5648193359375,0.8509521484375,-33.17557251908397,109.02290076335878,-63.93893129770992
-0.1121826171875,0.69921875,1.159912109375,-37.16030534351145,89.63358778625954,-38.54961832061068
-0.0682373046875,0.340087890625,0.958740234375,-18.99236641221374,61.229007633587784,-9.541984732824428
-0.1844482421875,0.485107421875,0.9443359375,-8.34351145038168,39.55725190839695,-7.809160305343512
-0.1085205078125,0.243896484375,0.8245849609375,-34.48091603053435,29.977099236641223,-42.18320610687023
-0.240234375,0.2698974609375,0.795166015625,-21.129770992366414,22.3206106870229,-30.480916030534353
-0.4395751953125,0.435546875,1.0255126953125,-0.3893129770992366,0.9083969465648855,-3.564885496183206
-0.396728515625,0.4722900390625,1.309326171875,20.114503816793892,-78.27480916030534,10.931297709923664
-0.218505859375,0.275146484375,0.904052734375,46.06870229007634,-69.9618320610687,47.51908396946565
-0.0931396484375,0.4359130859375,0.5699462890625,36.63358778625954,-29.69465648854962,45.412213740458014
0.217041015625,0.270751953125,0.6417236328125,28.38167938931298,-59.19083969465649,53.18320610687023
0.3212890625,0.4139404296875,0.643798828125,43.0,-17.221374045801525,43.732824427480914
0.4075927734375,0.45556640625,0.6629638671875,15.51908396946565,-15.435114503816793,24.259541984732824
0.4832763671875,0.4794921875,0.5343017578125,-5.0458015267175576,-4.557251908396947,-1.6641221374045803
0.4808349609375,0.4271240234375,0.525146484375,-27.923664122137403,17.755725190839694,-21.076335877862597
0.35107421875,0.4337158203125,0.6640625,-32.12213740458015,45.87022900763359,-16.091603053435115
-0.013916015625,0.435791015625,0.7847900390625,-8.648854961832061,92.74809160305344,-37.67175572519084
-0.34375,0.6910400390625,0.9736328125,-3.763358778625954,90.08396946564885,-32.969465648854964
-0.3214111328125,0.4462890625,0.8626708984375,-24.931297709923665,30.206106870229007,-24.31297709923664
-0.22314453125,0.384033203125,0.868408203125,-33.603053435114504,33.12213740458015,-13.374045801526718
-0.3648681640625,0.420166015625,0.9224853515625,-16.022900763358777,11.748091603053435,-13.320610687022901
-0.366455078125,0.305419921875,0.8685302734375,-12.038167938931299,11.053435114503817,-17.27480916030534
-0.5906982421875,0.490478515625,1.1903076171875,-1.4274809160305344,-19.541984732824428,-5.129770992366412
-0.4658203125,0.3883056640625,0.984619140625,23.625954198473284,-82.89312977099236,49.343511450381676
-0.2398681640625,0.4244384765625,0.7880859375,40.20610687022901,-75.17557251908397,74.25190839694656
0.045166015625,0.4007568359375,0.7535400390625,28.374045801526716,-79.74045801526718,73.33587786259542
0.3160400390625,0.4298095703125,0.57470703125,12.16030534351145,-62.06106870229008,59.69465648854962
0.3992919921875,0.4678955078125,0.712646484375,3.6106870229007635,-53.56488549618321,49.87022900763359
0.654296875,0.2794189453125,0.4757080078125,-7.67175572519084,-39.89312977099237,24.732824427480917
0.8875732421875,0.206787109375,0.248046875,6.900763358778626,-9.396946564885496,6.99236641221374
0.575927734375,0.4395751953125,0.5999755859375,-1.1984732824427482,44.42748091603053,-25.129770992366414
0.5401611328125,0.37451171875,0.57470703125,-21.786259541984734,26.404580152671755,-25.85496183206107
0.378662109375,0.450927734375,0.619873046875,-12.740458015267176,62.465648854961835,-20.18320610687023
0.1688232421875,-0.067138671875,1.2796630859375,38.83206106870229,6.6106870229007635,-66.77099236641222
-0.09716796875,0.561767578125,0.623046875,-0.7022900763358778,-29.64885496183206,-147.793893129771
-0.11181640625,0.6170654296875,1.0438232421875,37.10687022900763,-95.42748091603053,-159.49618320610688
-0.06005859375,0.860107421875,0.2496337890625,30.12213740458015,-42.19847328244275,-119.44274809160305
-0.1944580078125,1.1339111328125,0.3768310546875,18.82442748091603,11.732824427480915,-39.62595419847328
-0.1456298828125,0.912841796875,0.49462890625,-1.786259541984733,-10.83206106870229,12.129770992366412
-0.0477294921875,0.8798828125,0.449462890625,-3.5114503816793894,27.076335877862597,50.717557251908396
-0.1075439453125,0.9656982421875,0.392822265625,-26.46564885496183,56.56488549618321,103.54961832061069
-0.1669921875,0.6787109375,0.40283203125,-23.49618320610687,104.73282442748092,128.8091603053435
-0.140625,0.2926025390625,0.768798828125,-42.412213740458014,142.63358778625954,108.36641221374046
-0.105224609375,0.1199951171875,1.2037353515625,-88.09923664122137,74.62595419847328,69.83206106870229
-0.0078125,0.0279541015625,1.2296142578125,-27.16030534351145,7.816793893129771,23.51145038167939
-0.019287109375,0.2236328125,0.9202880859375,7.099236641221374,-18.61832061068702,-3.687022900763359
0.0731201171875,0.2132568359375,0.903076171875,6.900763358778626,-8.98473282442748,-13.801526717557252
-0.0107421875,0.143798828125,1.14892578125,32.80916030534351,-39.38931297709924,-44.396946564885496
-0.069580078125,0.1112060546875,0.9180908203125,58.61068702290076,-69.12977099236642,-89.12213740458016
-0.161865234375,0.5679931640625,0.5230712890625,61.62595419847328,-72.61068702290076,-107.2442748091603
-0.1217041015625,0.7733154296875,0.4542236328125,-3.66412213740458,-32.80916030534351,-132.38931297709922
-0.2052001953125,1.0252685546875,0.556396484375,33.3587786259542,-51.9236641221374,-74.21374045801527
-0.1629638671875,0.9931640625,0.4022216796875,-5.8320610687022905,-31.396946564885496,-2.66412213740458
-0.03125,0.7508544921875,0.478759765625,-7.916030534351145,-6.1679389312977095,10.34351145038168
-0.07177734375,0.834228515625,0.4791259765625,-9.351145038167939,16.51145038167939,32.33587786259542
-0.1741943359375,0.934814453125,0.3848876953125,-44.31297709923664,45.62595419847328,91.79389312977099
-0.1064453125,0.603759765625,0.576416015625,-65.33587786259542,62.33587786259542,109.3206106870229
-0.082763671875,0.38427734375,0.7783203125,-67.51908396946565,58.908396946564885,94.54198473282443
0.0484619140625,0.0587158203125,1.1463623046875,-40.786259541984734,24.0381679389313,42.541984732824424
0.05908203125,0.147216796875,0.9410400390625,-12.351145038167939,-1.1755725190839694,9.587786259541986
0.13525390625,0.473876953125,1.1044921875,-31.129770992366414,5.114503816793893,-15.938931297709924
-0.1224365234375,0.489501953125,1.2889404296875,-24.709923664122137,-62.038167938931295,8.870229007633588
0.1016845703125,0.3360595703125,0.90234375,-1.5725190839694656,-75.83969465648855,20.85496183206107
0.1883544921875,0.35400390625,0.715087890625,1.6030534351145038,-70.48091603053435,18.908396946564885
0.26220703125,0.1866455078125,0.484619140625,0.5801526717557252,-173.64885496183206,83.74809160305344
0.654541015625,0.0849609375,0.356689453125,12.32824427480916,-50.20610687022901,15.16793893129771
0.6497802734375,0.2083740234375,0.469482421875,-11.236641221374045,25.748091603053435,-8.954198473282442
0.5416259765625,0.2442626953125,0.6129150390625,-10.01526717557252,26.671755725190838,-13.900763358778626
0.47265625,0.091796875,0.4205322265625,-12.664122137404581,39.465648854961835,-15.908396946564885
0.321044921875,0.15625,0.45263671875,-6.66412213740458,122.50381679389314,-43.213740458015266
-0.02099609375,0.4241943359375,1.0396728515625,-2.717557251908397,112.93893129770993,-50.86259541984733
-0.0838623046875,0.449462890625,1.3402099609375,-15.038167938931299,41.045801526717554,-24.251908396946565
-0.1260986328125,0.3883056640625,1.0899658203125,-10.67175572519084,18.564885496183205,-6.816793893129771
-0.088623046875,0.28466796875,0.93408203125,-4.3816793893129775,9.67175572519084,-0.16793893129770993
-0.0523681640625,0.3155517578125,1.0,1.381679389312977,0.16793893129770993,1.5648854961832062
-0.26904296875,0.388671875,1.498291015625,-20.15267175572519,-1.16793893129771,16.931297709923665
-0.214599609375,0.3294677734375,1.044921875,12.221374045801527,-61.3587786259542,30.076335877862597
0.035400390625,0.2603759765625,0.7418212890625,-7.648854961832061,-88.83969465648855,37.52671755725191
0.2125244140625,0.1959228515625,0.6016845703125,6.435114503816794,-62.656488549618324,27.099236641221374
0.3775634765625,0.157958984375,0.5284423828125,-8.045801526717558,-40.74045801526717,4.511450381679389
0.4080810546875,0.187744140625,0.576416015625,-12.526717557251908,-7.183206106870229,-3.3893129770992365
0.4183349609375,0.1834716796875,0.68701171875,-4.511450381679389,12.488549618320612,-7.251908396946565
0.33154296875,0.3226318359375,0.802734375,-8.572519083969466,16.50381679389313,-8.045801526717558
0.269775390625,0.20947265625,0.713134765625,2.114503816793893,11.374045801526718,-3.3893129770992365
0.3040771484375,0.172607421875,0.5504150390625,-8.717557251908397,33.81679389312977,-18.19083969465649
0.1290283203125,0.2509765625,0.699951171875,-31.72519083969466,38.86259541984733,-35.541984732824424
0.106689453125,0.28759765625,0.873291015625,-25.603053435114504,83.6412213740458,-22.0
-0.0928955078125,0.322021484375,1.53271484375,22.82442748091603,46.93129770992366,-24.19083969465649
-0.0823974609375,0.2730712890625,1.041748046875,-19.419847328244273,-27.419847328244273,6.969465648854962
0.0074462890625,0.16796875,0.84521484375,-0.2824427480916031,22.748091603053435,-5.908396946564886
