acc_x,acc_y,acc_z,gyro_x,gyro_y,gyro_z
-0.28076171875,0.18798828125,0.7130126953125,-3.030534351145038,34.51908396946565,50.343511450381676
-0.177734375,0.213134765625,0.7894287109375,5.641221374045801,-5.595419847328245,52.44274809160305
0.56787109375,-0.0782470703125,1.060302734375,7.2748091603053435,60.2442748091603,34.847328244274806
0.0921630859375,-0.03857421875,0.972900390625,63.67175572519084,67.2442748091603,-33.9236641221374
-0.658935546875,0.2467041015625,0.5279541015625,32.786259541984734,-63.82442748091603,-162.94656488549617
-0.65087890625,0.2528076171875,0.7611083984375,-10.694656488549619,-2.6564885496183206,-1.9618320610687023
-0.8109130859375,0.405029296875,0.904052734375,6.083969465648855,14.732824427480915,22.16030534351145
-0.521240234375,0.3740234375,0.8477783203125,0.3969465648854962,-21.633587786259543,28.977099236641223
-0.502685546875,0.3643798828125,0.8240966796875,-17.549618320610687,-24.18320610687023,45.717557251908396
-0.4765625,0.3858642578125,0.66650390625,-3.8931297709923665,12.15267175572519,91.16793893129771
-0.448974609375,0.388427734375,0.568359375,-62.221374045801525,0.48854961832061067,102.30534351145039
-0.39013671875,0.1385498046875,0.62109375,-77.16030534351145,1.5572519083969465,118.7557251908397
0.171142578125,-0.3121337890625,1.1483154296875,-85.74045801526718,-18.061068702290076,90.1145038167939
0.2843017578125,-0.305908203125,1.0863037109375,-28.748091603053435,-37.35114503816794,-4.641221374045801
-0.12255859375,0.02880859375,1.04052734375,21.3206106870229,10.450381679389313,-16.82442748091603
-0.0953369140625,-0.0703125,1.142822265625,50.458015267175576,51.770992366412216,-18.068702290076335
0.092529296875,-0.2548828125,1.210205078125,97.38931297709924,-18.480916030534353,-60.534351145038165
-0.1273193359375,-0.009765625,0.5555419921875,100.54198473282443,-98.51908396946565,-145.53435114503816
-0.3375244140625,0.10791015625,0.5731201171875,58.06870229007634,-86.99236641221374,-195.65648854961833
-1.04052734375,0.6236572265625,0.4522705078125,-68.49618320610686,-39.282442748091604,-58.954198473282446
-0.5609130859375,0.937744140625,0.98681640625,-103.01526717557252,79.40458015267176,-16.480916030534353
-0.3077392578125,0.4306640625,0.826904296875,-41.25190839694657,44.52671755725191,69.07633587786259
-0.460205078125,0.311767578125,0.895751953125,20.251908396946565,-28.900763358778626,79.52671755725191
-0.369384765625,0.400146484375,0.813720703125,-86.93893129770993,14.511450381679388,50.458015267175576
-0.2371826171875,0.247314453125,0.6082763671875,17.61832061068702,-24.778625954198475,126.6412213740458
-0.1324462890625,0.1759033203125,0.5819091796875,32.3206106870229,-6.0,154.33587786259542
0.0274658203125,-0.141357421875,0.7333984375,38.732824427480914,-3.450381679389313,101.64885496183206
0.3411865234375,-0.53759765625,0.8414306640625,-159.49618320610688,9.84732824427481,33.93893129770992
0.1168212890625,-0.286376953125,1.1376953125,-36.88549618320611,-11.954198473282442,-27.015267175572518
-0.0714111328125,0.039306640625,1.115966796875,20.748091603053435,18.19083969465649,2.2519083969465647
0.0927734375,-0.09375,1.0350341796875,64.58015267175573,-6.015267175572519,-1.0458015267175573
0.1402587890625,-0.1180419921875,0.99609375,55.52671755725191,-27.938931297709924,-75.86259541984732
-0.0433349609375,0.1300048828125,0.92822265625,67.94656488549619,-42.93893129770992,-71.1145038167939
-0.2254638671875,0.3897705078125,0.5625,70.29770992366412,-25.717557251908396,-129.78625954198472
-0.341796875,0.4913330078125,0.3572998046875,-26.893129770992367,3.763358778625954,-154.05343511450383
-0.6971435546875,0.6622314453125,0.7822265625,-32.25954198473283,12.038167938931299,-141.4732824427481
-0.91845703125,0.6568603515625,1.0302734375,-13.267175572519085,20.702290076335878,-8.259541984732824
-0.526123046875,0.3797607421875,0.7877197265625,-18.755725190839694,-31.755725190839694,50.404580152671755
-0.4486083984375,0.3394775390625,0.6893310546875,-6.2748091603053435,7.022900763358779,88.25190839694656
-0.42236328125,0.3759765625,0.6654052734375,-24.625954198473284,30.793893129770993,111.8473282442748
-0.423583984375,0.379150390625,0.6884765625,-98.70992366412214,5.809160305343512,138.70992366412213
-0.1544189453125,0.1314697265625,0.6903076171875,-71.47328244274809,-4.984732824427481,125.92366412213741
0.19580078125,-0.2584228515625,0.91015625,-86.31297709923665,13.320610687022901,96.38167938931298
0.2974853515625,-0.4912109375,1.2125244140625,-33.656488549618324,-1.7099236641221374,26.16793893129771
0.0096435546875,-0.165283203125,1.0789794921875,22.763358778625953,-0.16030534351145037,-17.16030534351145
0.0509033203125,-0.148193359375,1.0537109375,52.0,-5.870229007633588,-20.984732824427482
-0.060302734375,-0.0430908203125,0.9969482421875,62.25190839694657,-18.610687022900763,-64.73282442748092
-0.094970703125,0.1846923828125,0.779296875,87.08396946564885,-28.64885496183206,-78.51908396946565
-0.136962890625,0.313232421875,0.58154296875,44.52671755725191,-31.236641221374047,-108.85496183206106
-0.3189697265625,0.4915771484375,0.57373046875,38.465648854961835,-12.473282442748092,-134.70992366412213
-0.4674072265625,0.5250244140625,0.27392578125,-40.80152671755725,-37.274809160305345,-165.45801526717557
-0.8189697265625,0.572509765625,1.0272216796875,-14.870229007633588,32.89312977099237,-27.770992366412212
-0.67919921875,0.516357421875,0.8040771484375,-11.687022900763358,-26.16793893129771,37.19083969465649
-0.5728759765625,0.5084228515625,0.728759765625,-25.82442748091603,-18.19083969465649,69.16030534351145
-0.4300537109375,0.42138671875,0.6292724609375,-38.29770992366412,-14.885496183206106,98.4885496183206
-0.2388916015625,0.33203125,0.652099609375,-37.603053435114504,-29.47328244274809,111.23664122137404
-0.2005615234375,0.2647705078125,0.640869140625,-29.541984732824428,18.061068702290076,125.96946564885496
-0.0802001953125,0.073486328125,0.740966796875,-77.41221374045801,27.49618320610687,107.62595419847328
0.1524658203125,-0.3314208984375,1.052001953125,-77.86259541984732,33.404580152671755,68.38167938931298
0.1270751953125,-0.3843994140625,1.2003173828125,-4.312977099236641,2.16793893129771,12.412213740458014
0.01513671875,-0.1048583984375,1.005126953125,26.931297709923665,-0.9465648854961832,-16.03053435114504
0.0419921875,-0.0938720703125,1.0213623046875,49.31297709923664,4.816793893129771,-31.16793893129771
-0.0589599609375,-0.0576171875,1.018310546875,69.07633587786259,-13.86259541984733,-57.717557251908396
-0.0018310546875,-0.0130615234375,0.8038330078125,83.94656488549619,-39.02290076335878,-102.06870229007633
-0.18603515625,0.3382568359375,0.5054931640625,58.038167938931295,-32.94656488549618,-121.83969465648855
-0.3944091796875,0.4166259765625,0.4830322265625,40.83206106870229,-19.34351145038168,-160.4885496183206
-0.6773681640625,0.6636962890625,0.598876953125,-15.877862595419847,-4.557251908396947,-147.96946564885496
-0.7904052734375,0.6923828125,0.916259765625,0.7404580152671756,13.045801526717558,-23.931297709923665
-0.5491943359375,0.5301513671875,0.716064453125,-27.396946564885496,6.229007633587786,51.61832061068702
-0.54248046875,0.5576171875,0.6240234375,-46.786259541984734,-11.923664122137405,79.86259541984732
-0.3486328125,0.381591796875,0.65380859375,-52.19847328244275,-4.770992366412214,107.65648854961832
-0.2586669921875,0.3951416015625,0.7506103515625,-29.770992366412212,-13.374045801526718,159.54961832061068
-0.1683349609375,0.2108154296875,0.718994140625,-58.58015267175573,17.51145038167939,109.19847328244275
-0.100830078125,0.048095703125,0.9013671875,-46.900763358778626,-2.3893129770992365,109.95419847328245
0.1549072265625,-0.3814697265625,1.0684814453125,-102.67175572519083,34.030534351145036,60.404580152671755
0.186767578125,-0.45458984375,1.1630859375,6.129770992366412,-38.61068702290076,19.137404580152673
0.008544921875,0.0003662109375,0.9259033203125,22.31297709923664,-7.2748091603053435,-30.541984732824428
0.0162353515625,-0.0072021484375,0.9881591796875,34.847328244274806,-2.618320610687023,-37.045801526717554
0.046630859375,-0.0721435546875,1.02978515625,47.908396946564885,-18.541984732824428,-63.83206106870229
-0.0535888671875,0.1214599609375,0.8282470703125,70.04580152671755,-28.251908396946565,-79.0
-0.0084228515625,0.1939697265625,0.66064453125,50.038167938931295,-55.221374045801525,-104.6030534351145
-0.094970703125,0.248779296875,0.4337158203125,-1.0916030534351144,-33.0763358778626,-165.81679389312978
-0.541748046875,0.516845703125,0.6654052734375,41.98473282442748,68.2824427480916,-132.1679389312977
-0.9169921875,0.8477783203125,0.802978515625,13.625954198473282,30.297709923664122,-45.12977099236641
-0.7303466796875,0.6707763671875,0.6536865234375,-12.450381679389313,-12.13740458015267,29.64885496183206
-0.553955078125,0.5697021484375,0.6822509765625,-30.595419847328245,-22.061068702290076,68.4885496183206
-0.3939208984375,0.4591064453125,0.671875,-44.229007633587784,-24.946564885496183,83.13740458015268
-0.272216796875,0.394287109375,0.62109375,-51.17557251908397,0.19083969465648856,110.25954198473282
-0.2264404296875,0.3192138671875,0.615966796875,-45.76335877862596,-8.198473282442748,124.87022900763358
-0.268798828125,0.080322265625,0.7340087890625,-71.43511450381679,52.62595419847328,142.25954198473283
-0.0869140625,-0.1309814453125,0.7845458984375,-88.65648854961832,-19.27480916030534,93.63358778625954
0.2822265625,-0.6212158203125,1.23486328125,-46.51908396946565,-0.6183206106870229,33.14503816793893
0.0274658203125,-0.1956787109375,0.996826171875,13.183206106870228,1.7099236641221374,-18.65648854961832
-0.0079345703125,-0.1640625,1.0267333984375,38.45038167938932,-1.282442748091603,-23.572519083969464
-0.02783203125,-0.0335693359375,0.944091796875,36.99236641221374,-22.236641221374047,-36.97709923664122
0.0050048828125,0.0557861328125,0.8424072265625,28.793893129770993,-3.9236641221374047,-76.03053435114504
-0.005126953125,0.0322265625,0.829833984375,21.374045801526716,-15.82442748091603,-79.25954198473282
-0.041748046875,0.0777587890625,0.7548828125,37.17557251908397,-8.83969465648855,-102.93893129770993
-0.233642578125,0.309326171875,0.7198486328125,24.69465648854962,9.236641221374045,-140.10687022900763
-0.4381103515625,0.4664306640625,0.78759765625,17.84732824427481,73.74045801526718,-65.72519083969466
-0.52099609375,0.4559326171875,1.0062255859375,17.12213740458015,35.25954198473283,-17.633587786259543
-0.521240234375,0.492919921875,0.82568359375,6.847328244274809,5.297709923664122,40.74809160305343
-0.3377685546875,0.372314453125,0.7850341796875,-11.84732824427481,-9.580152671755725,61.42748091603053
-0.41650390625,0.482177734375,0.7672119140625,-34.847328244274806,-26.66412213740458,85.46564885496183
-0.180419921875,0.2630615234375,0.73046875,-30.72519083969466,-4.1679389312977095,114.74045801526718
-0.1724853515625,0.099609375,0.7747802734375,-60.37404580152672,3.1526717557251906,106.98473282442748
-0.107666015625,-0.0235595703125,0.90234375,-79.29770992366412,-36.50381679389313,78.65648854961832
0.21337890625,-0.418212890625,1.047119140625,-51.61832061068702,6.541984732824427,66.56488549618321
0.165283203125,-0.33544921875,1.0911865234375,-5.6106870229007635,11.816793893129772,1.3511450381679388
-0.0692138671875,0.021240234375,0.9527587890625,10.274809160305344,8.213740458015268,-4.740458015267175
0.048583984375,-0.1971435546875,1.0430908203125,29.358778625954198,3.4885496183206106,-19.778625954198475
-0.047607421875,-0.180419921875,1.020751953125,64.80916030534351,-19.328244274809162,-44.969465648854964
-0.0450439453125,-0.0096435546875,0.7420654296875,75.2824427480916,-5.351145038167939,-92.27480916030534
-0.1812744140625,0.2470703125,0.598876953125,90.43511450381679,-7.00763358778626,-129.05343511450383
-0.4786376953125,0.52978515625,0.637451171875,59.89312977099237,26.259541984732824,-120.72519083969466
-0.6729736328125,0.7938232421875,0.5897216796875,21.66412213740458,13.870229007633588,-76.20610687022901
-0.6500244140625,0.74072265625,0.704833984375,3.8244274809160306,7.3816793893129775,-9.358778625954198
-0.5018310546875,0.55126953125,0.7490234375,-14.67175572519084,-9.49618320610687,40.3587786259542
-0.4677734375,0.5146484375,0.7137451171875,-31.48854961832061,-23.85496183206107,66.26717557251908
-0.340087890625,0.4869384765625,0.7371826171875,-23.732824427480917,5.633587786259542,94.23664122137404
-0.27197265625,0.4716796875,0.6280517578125,-68.92366412213741,-12.320610687022901,97.8473282442748
-0.2509765625,0.352294921875,0.5770263671875,-70.52671755725191,23.870229007633586,128.51908396946564
-0.265380859375,0.0074462890625,0.705322265625,-115.29770992366412,27.748091603053435,128.61832061068702
0.2171630859375,-0.650146484375,1.1895751953125,-88.25954198473282,3.0,67.25954198473282
0.2574462890625,-0.517822265625,1.15380859375,4.343511450381679,-18.31297709923664,-11.82442748091603
0.0345458984375,-0.101806640625,0.9356689453125,31.885496183206108,12.427480916030534,-25.022900763358777
0.0517578125,-0.1260986328125,0.99951171875,42.43511450381679,-3.8702290076335877,-40.954198473282446
0.013427734375,-0.08447265625,0.9678955078125,66.33587786259542,-2.8091603053435112,-63.267175572519086
-0.06103515625,0.122802734375,0.8524169921875,78.55725190839695,-8.068702290076336,-74.89312977099236
-0.07275390625,0.206298828125,0.678466796875,57.343511450381676,-26.236641221374047,-109.36641221374046
-0.18115234375,0.282470703125,0.5784912109375,46.267175572519086,-47.10687022900763,-120.95419847328245
-0.511962890625,0.5767822265625,0.5435791015625,16.65648854961832,7.893129770992366,-140.89312977099237
-0.8133544921875,0.957275390625,0.6605224609375,21.587786259541986,17.885496183206108,-34.12977099236641
-0.643798828125,0.7418212890625,0.707275390625,-20.297709923664122,-15.15267175572519,43.32824427480916
-0.4388427734375,0.527587890625,0.6512451171875,-36.47328244274809,-8.183206106870228,87.62595419847328
-0.3609619140625,0.4361572265625,0.6207275390625,-50.343511450381676,1.0,107.89312977099236
-0.198974609375,0.3494873046875,0.611083984375,-63.31297709923664,-1.7251908396946565,112.86259541984732
-0.045166015625,0.09326171875,0.786376953125,-52.595419847328245,-8.251908396946565,110.58778625954199
-0.0162353515625,-0.06689453125,0.8817138671875,-74.4885496183206,19.282442748091604,97.63358778625954
0.2523193359375,-0.4495849609375,1.2550048828125,-49.3206106870229,17.946564885496183,48.595419847328245
0.1810302734375,-0.28955078125,1.1185302734375,14.16030534351145,-7.282442748091603,-18.396946564885496
0.064697265625,-0.0772705078125,1.0010986328125,46.267175572519086,-1.099236641221374,-37.725190839694655
0.0489501953125,-0.0496826171875,0.9847412109375,63.23664122137404,-16.48854961832061,-60.29770992366412
-0.0205078125,0.140869140625,0.8394775390625,70.29007633587786,-23.282442748091604,-81.64885496183206
-0.07763671875,0.250732421875,0.69140625,67.6793893129771,-9.068702290076336,-91.01526717557252
-0.2144775390625,0.3453369140625,0.654296875,46.82442748091603,-21.053435114503817,-118.64885496183206
-0.3712158203125,0.4971923828125,0.3719482421875,16.259541984732824,-24.0,-152.0229007633588
-1.0035400390625,1.1131591796875,0.7183837890625,-37.88549618320611,-17.48854961832061,-56.98473282442748
-0.5384521484375,0.6396484375,0.6536865234375,-21.87786259541985,-32.656488549618324,40.80916030534351
-0.3800048828125,0.5643310546875,0.7041015625,-29.66412213740458,-1.1526717557251909,72.97709923664122
-0.330078125,0.4482421875,0.7476806640625,-41.16030534351145,-14.442748091603054,88.8473282442748
-0.166748046875,0.34033203125,0.68505859375,-42.29007633587786,4.00763358778626,104.65648854961832
-0.028076171875,0.1292724609375,0.7816162109375,-55.221374045801525,11.473282442748092,96.67175572519083
0.0106201171875,0.0576171875,0.8707275390625,-44.213740458015266,-15.251908396946565,58.83206106870229
0.0218505859375,-0.0018310546875,0.8948974609375,-61.13740458015267,6.8396946564885495,81.97709923664122
0.3743896484375,-0.408203125,1.228515625,-42.74809160305343,12.038167938931299,34.54961832061068
0.26025390625,-0.282470703125,1.0284423828125,21.6793893129771,-13.793893129770993,-30.748091603053435
0.0960693359375,-0.0220947265625,0.9508056640625,61.786259541984734,5.603053435114504,-57.11450381679389
0.1041259765625,0.0357666015625,0.8162841796875,60.267175572519086,-13.664122137404581,-89.36641221374046
-0.0162353515625,0.224365234375,0.79833984375,57.56488549618321,-1.5954198473282444,-101.16030534351145
-0.056396484375,0.2667236328125,0.6983642578125,41.221374045801525,-28.022900763358777,-131.05343511450383
-0.2940673828125,0.465087890625,0.560546875,24.48854961832061,4.106870229007634,-108.79389312977099
-0.5841064453125,0.7451171875,0.6845703125,16.87786259541985,16.0,-69.54198473282443
-0.7305908203125,0.842041015625,0.7508544921875,4.419847328244275,12.030534351145038,7.480916030534351
-0.5230712890625,0.661376953125,0.596923828125,-26.65648854961832,15.297709923664122,65.3587786259542
-0.35107421875,0.531494140625,0.664306640625,-40.38167938931298,-19.47328244274809,84.25954198473282
-0.18896484375,0.4080810546875,0.67431640625,-44.717557251908396,-18.435114503816795,100.59541984732824
-0.1373291015625,0.359130859375,0.68310546875,-45.412213740458014,14.992366412213741,104.74809160305344
-0.005126953125,0.1527099609375,0.822265625,-55.083969465648856,14.98473282442748,111.4885496183206
0.06201171875,-0.0208740234375,0.8223876953125,-67.36641221374046,18.00763358778626,97.79389312977099
0.35400390625,-0.375732421875,1.1451416015625,-38.35114503816794,6.877862595419847,55.86259541984733
0.261474609375,-0.24267578125,1.10595703125,7.923664122137405,-15.366412213740459,-10.885496183206106
0.15673828125,-0.0794677734375,1.0150146484375,33.267175572519086,-4.656488549618321,-35.534351145038165
0.144775390625,-0.0225830078125,0.9464111328125,56.954198473282446,2.2213740458015265,-55.900763358778626
0.0546875,0.12255859375,0.86083984375,63.66412213740458,-9.091603053435115,-75.80916030534351
-0.082763671875,0.3406982421875,0.7305908203125,50.54961832061068,-16.251908396946565,-96.72519083969466
-0.1180419921875,0.3868408203125,0.6114501953125,39.48854961832061,-13.48091603053435,-102.8473282442748
-0.0948486328125,0.359619140625,0.446044921875,-57.25190839694657,-69.20610687022901,-161.95419847328245
-0.5809326171875,0.4903564453125,0.9346923828125,20.763358778625953,68.98473282442748,-69.45038167938931
-0.8013916015625,0.7633056640625,0.9642333984375,9.534351145038167,-4.183206106870229,0.5877862595419847
-0.51708984375,0.591064453125,0.609375,-8.114503816793894,-17.83969465648855,56.603053435114504
-0.3486328125,0.4791259765625,0.62841796875,-15.435114503816793,3.519083969465649,85.87022900763358
-0.263916015625,0.42724609375,0.710205078125,-45.50381679389313,-15.557251908396946,90.12977099236642
-0.178466796875,0.3780517578125,0.6883544921875,-59.38931297709924,-24.259541984732824,104.99236641221374
0.050048828125,0.06494140625,0.7989501953125,-58.23664122137404,4.419847328244275,101.59541984732824
0.044921875,-0.0487060546875,0.8780517578125,-59.282442748091604,19.15267175572519,110.98473282442748
0.2904052734375,-0.32763671875,1.116455078125,-33.86259541984733,-0.5114503816793893,53.786259541984734
0.3521728515625,-0.3228759765625,1.09375,7.32824427480916,-5.793893129770993,-9.297709923664122
0.1949462890625,-0.1558837890625,1.0196533203125,37.16030534351145,-3.6106870229007635,-42.85496183206107
0.1533203125,0.0155029296875,0.9097900390625,59.221374045801525,-9.427480916030534,-81.31297709923665
0.0296630859375,0.1683349609375,0.8092041015625,54.76335877862596,-8.427480916030534,-90.46564885496183
-0.026123046875,0.29150390625,0.69140625,44.961832061068705,-20.908396946564885,-96.92366412213741
-0.1370849609375,0.4337158203125,0.6146240234375,19.870229007633586,-13.435114503816793,-92.6793893129771
-0.3043212890625,0.6229248046875,0.6988525390625,17.068702290076335,9.664122137404581,-79.23664122137404
-0.5499267578125,0.8572998046875,0.809326171875,10.129770992366412,16.076335877862597,-23.557251908396946
-0.415283203125,0.7098388671875,0.652587890625,-14.84732824427481,0.32061068702290074,28.34351145038168
-0.3343505859375,0.610595703125,0.662353515625,-29.96946564885496,-2.8702290076335877,53.954198473282446
-0.1971435546875,0.468017578125,0.755126953125,-34.786259541984734,-14.01526717557252,80.22137404580153
-0.1209716796875,0.4537353515625,0.697998046875,-37.48854961832061,2.595419847328244,85.7557251908397
-0.09423828125,0.3829345703125,0.7161865234375,-58.16793893129771,-4.870229007633588,87.29007633587786
-0.037109375,0.1995849609375,0.7596435546875,-65.34351145038168,1.6106870229007633,93.41221374045801
0.202392578125,-0.1343994140625,1.001953125,-63.88549618320611,6.175572519083969,85.8473282442748
0.3533935546875,-0.3592529296875,1.1400146484375,-20.206106870229007,4.198473282442748,19.893129770992367
0.245361328125,-0.1943359375,1.0579833984375,22.64885496183206,-3.49618320610687,-30.870229007633586
0.1705322265625,-0.020751953125,0.934326171875,50.54961832061068,-5.763358778625954,-56.49618320610687
0.047119140625,0.155029296875,0.8675537109375,49.29770992366412,-17.068702290076335,-75.29007633587786
-0.0126953125,0.224609375,0.77392578125,44.29007633587786,-42.05343511450382,-96.07633587786259
-0.0157470703125,0.32275390625,0.7027587890625,55.33587786259542,-5.5038167938931295,-104.26717557251908
-0.2301025390625,0.4971923828125,0.54052734375,36.83206106870229,17.374045801526716,-112.58015267175573
-0.5826416015625,0.9114990234375,0.6585693359375,5.465648854961832,2.854961832061069,-78.38931297709924
-0.588134765625,0.8980712890625,0.68798828125,-4.0534351145038165,-7.66412213740458,17.47328244274809
-0.3876953125,0.7286376953125,0.6258544921875,-28.12213740458015,-4.67175572519084,56.05343511450382
-0.28125,0.5548095703125,0.691650390625,-44.954198473282446,-6.1603053435114505,81.23664122137404
-0.1270751953125,0.4388427734375,0.6832275390625,-49.49618320610687,-13.13740458015267,88.56488549618321
-0.094970703125,0.378173828125,0.68115234375,-60.32824427480916,-0.8778625954198473,97.3587786259542
0.0863037109375,0.0653076171875,0.817626953125,-51.87786259541985,14.419847328244275,105.35114503816794
0.07080078125,-0.024169921875,0.7783203125,-72.65648854961832,16.480916030534353,98.13740458015268
0.3968505859375,-0.4730224609375,1.1348876953125,-40.17557251908397,15.732824427480915,68.78625954198473
0.42919921875,-0.48828125,1.1614990234375,8.32824427480916,-1.3053435114503817,-10.335877862595419
0.188232421875,-0.1180419921875,0.986328125,39.70229007633588,-7.312977099236641,-48.458015267175576
0.2100830078125,-0.1002197265625,0.9344482421875,57.458015267175576,-7.175572519083969,-70.22900763358778
0.0224609375,0.2115478515625,0.8018798828125,62.80152671755725,-6.33587786259542,-80.0
0.044677734375,0.2919921875,0.73193359375,61.83969465648855,-4.938931297709924,-83.70992366412214
-0.0155029296875,0.3499755859375,0.6412353515625,42.06870229007634,-10.763358778625955,-100.3587786259542
-0.29150390625,0.5933837890625,0.5865478515625,18.580152671755727,-5.793893129770993,-110.3587786259542
-0.548095703125,0.953369140625,0.708984375,-7.061068702290076,-7.6106870229007635,-59.85496183206107
-0.5433349609375,0.9256591796875,0.6773681640625,-13.381679389312977,-11.648854961832061,26.015267175572518
-0.3123779296875,0.66650390625,0.67333984375,-33.7557251908397,-7.6106870229007635,84.00763358778626
-0.1143798828125,0.446044921875,0.7266845703125,-36.80152671755725,-1.8015267175572518,95.77862595419847
-0.0302734375,0.344482421875,0.6412353515625,-53.57251908396947,8.427480916030534,97.57251908396947
-0.0013427734375,0.22314453125,0.8092041015625,-57.229007633587784,-1.1297709923664123,92.32824427480917
0.07568359375,0.0303955078125,0.855712890625,-68.76335877862596,-15.045801526717558,86.66412213740458
0.2149658203125,-0.1842041015625,0.8768310546875,-53.58015267175573,1.450381679389313,84.6793893129771
0.42822265625,-0.420654296875,0.9237060546875,-29.267175572519083,1.7709923664122138,44.030534351145036
0.42724609375,-0.4866943359375,1.060546875,7.541984732824427,3.519083969465649,-23.610687022900763
0.221435546875,-0.2293701171875,1.02734375,46.83206106870229,-7.236641221374046,-60.083969465648856
0.1796875,-0.0823974609375,0.8409423828125,65.14503816793894,-1.4274809160305344,-83.49618320610686
0.1435546875,0.0625,0.779052734375,42.67175572519084,-25.18320610687023,-113.05343511450381
0.0074462890625,0.251220703125,0.80126953125,71.8473282442748,15.122137404580153,-92.07633587786259
-0.0843505859375,0.3997802734375,0.6507568359375,58.16793893129771,8.86259541984733,-112.23664122137404
-0.3597412109375,0.6990966796875,0.3492431640625,7.916030534351145,5.129770992366412,-118.08396946564885
-0.6375732421875,0.887939453125,0.8587646484375,13.931297709923664,21.427480916030536,-29.221374045801525
-0.5325927734375,0.8323974609375,0.7164306640625,-7.083969465648855,-12.038167938931299,40.63358778625954
-0.383056640625,0.7476806640625,0.608642578125,-23.206106870229007,-13.068702290076336,80.13740458015268
-0.1463623046875,0.4853515625,0.55419921875,-47.88549618320611,-14.17557251908397,89.34351145038168
-0.091796875,0.4208984375,0.663330078125,-53.01526717557252,20.328244274809162,106.08396946564885
0.0184326171875,0.16162109375,0.858642578125,-59.93893129770992,13.435114503816793,115.31297709923665
0.0631103515625,0.08251953125,0.77880859375,-54.656488549618324,-0.549618320610687,100.23664122137404
0.2030029296875,-0.102294921875,0.8995361328125,-58.13740458015267,11.80916030534351,83.83206106870229
0.4423828125,-0.5372314453125,1.195068359375,-22.33587786259542,12.221374045801527,17.18320610687023
0.2379150390625,-0.2388916015625,1.091796875,22.786259541984734,-4.9541984732824424,-41.64885496183206
0.216552734375,-0.1148681640625,0.9195556640625,51.343511450381676,-14.0,-66.77862595419847
0.1177978515625,0.0311279296875,0.867919921875,62.05343511450382,-15.312977099236642,-82.49618320610686
-0.0074462890625,0.222900390625,0.708740234375,76.5114503816794,2.9389312977099236,-104.3969465648855
-0.1370849609375,0.3388671875,0.6002197265625,79.33587786259542,-7.938931297709924,-118.50381679389314
-0.33837890625,0.6488037109375,0.5185546875,49.41984732824427,-10.969465648854962,-114.97709923664122
-0.6304931640625,1.1260986328125,0.3885498046875,25.259541984732824,32.11450381679389,-10.381679389312977
-0.505126953125,0.958984375,0.5828857421875,-31.068702290076335,-3.801526717557252,8.099236641221374
-0.3812255859375,0.7977294921875,0.657958984375,-30.442748091603054,-16.015267175572518,44.10687022900763
-0.3045654296875,0.6859130859375,0.54638671875,-66.04580152671755,-18.19083969465649,77.77862595419847
-0.1551513671875,0.489501953125,0.62646484375,-61.213740458015266,6.282442748091603,101.67175572519083
-0.0780029296875,0.26171875,0.79150390625,-62.25190839694657,30.954198473282442,103.70229007633588
0.009033203125,0.061767578125,0.877685546875,-60.465648854961835,17.85496183206107,104.68702290076335
-0.008544921875,0.0362548828125,0.839599609375,-72.40458015267176,25.480916030534353,107.26717557251908
0.3387451171875,-0.53759765625,1.26708984375,-31.412213740458014,11.091603053435115,68.7175572519084
0.3131103515625,-0.431396484375,1.0201416015625,13.435114503816793,-19.47328244274809,-39.091603053435115
0.11865234375,-0.0523681640625,0.94580078125,32.32824427480916,-8.221374045801527,-76.82442748091603
0.0362548828125,-0.0052490234375,0.9251708984375,51.93129770992366,-18.87786259541985,-102.30534351145039
-0.068603515625,0.197265625,0.8800048828125,65.34351145038168,-15.282442748091603,-106.91603053435115
-0.18359375,0.396728515625,0.6544189453125,57.89312977099237,-17.53435114503817,-107.99236641221374
-0.2655029296875,0.5413818359375,0.560546875,10.98473282442748,-24.27480916030534,-132.93893129770993
-0.3514404296875,0.7308349609375,0.6312255859375,18.442748091603054,22.198473282442748,-58.83969465648855
-0.384521484375,0.7069091796875,0.7086181640625,15.801526717557252,19.984732824427482,-7.5038167938931295
-0.4498291015625,0.76123046875,0.7177734375,-3.946564885496183,-4.351145038167939,35.48854961832061
-0.36376953125,0.68505859375,0.6220703125,-27.14503816793893,-13.885496183206106,78.96946564885496
-0.2802734375,0.53564453125,0.60302734375,-43.587786259541986,3.687022900763359,114.54198473282443
-0.19580078125,0.3375244140625,0.654052734375,-68.87786259541984,3.4885496183206106,127.26717557251908
-0.1138916015625,0.1021728515625,0.6290283203125,-82.94656488549619,4.549618320610687,137.14503816793894
0.2568359375,-0.418212890625,1.0555419921875,-59.7557251908397,29.442748091603054,116.2824427480916
0.39697265625,-0.53369140625,1.2490234375,-38.10687022900763,23.33587786259542,37.61832061068702
0.2955322265625,-0.3525390625,1.093017578125,27.748091603053435,-4.541984732824427,-42.80916030534351
0.1392822265625,-0.1156005859375,0.98193359375,41.06870229007634,-13.534351145038167,-78.06870229007633
0.0499267578125,-0.0013427734375,0.9410400390625,51.9236641221374,-17.015267175572518,-91.83206106870229
0.005615234375,0.12060546875,0.8720703125,43.61832061068702,-31.389312977099237,-100.9618320610687
-0.005126953125,0.2060546875,0.62890625,46.9236641221374,-35.49618320610687,-121.18320610687023
-0.123779296875,0.30322265625,0.6212158203125,56.099236641221374,-9.083969465648854,-141.1145038167939
-0.596923828125,0.878662109375,0.4935302734375,-3.236641221374046,-0.9923664122137404,-113.26717557251908
-0.657958984375,1.005859375,0.6798095703125,-22.251908396946565,31.83206106870229,-17.85496183206107
-0.5556640625,0.7540283203125,0.7735595703125,-24.19083969465649,5.984732824427481,62.68702290076336
-0.326416015625,0.5361328125,0.6961669921875,-36.00763358778626,-25.00763358778626,94.94656488549619
-0.133056640625,0.43017578125,0.6005859375,-31.022900763358777,-25.702290076335878,102.74809160305344
-0.0625,0.360595703125,0.70703125,-54.25954198473283,-5.793893129770993,109.49618320610686
-0.0098876953125,0.189697265625,0.795166015625,-34.458015267175576,27.786259541984734,120.97709923664122
0.0816650390625,0.056884765625,0.7445068359375,-61.37404580152672,18.709923664122137,114.1145038167939
0.253173828125,-0.2957763671875,1.0294189453125,-45.94656488549618,29.96946564885496,85.67175572519083
0.4114990234375,-0.5186767578125,1.245361328125,-8.129770992366412,23.03053435114504,22.519083969465647
0.2808837890625,-0.2850341796875,1.0447998046875,34.091603053435115,-4.824427480916031,-53.70992366412214
0.10546875,-0.0904541015625,0.9180908203125,62.786259541984734,-17.893129770992367,-90.8473282442748
0.0155029296875,0.085693359375,0.7894287109375,81.25954198473282,-20.267175572519083,-118.77099236641222
-0.0673828125,0.2850341796875,0.652099609375,81.25190839694656,-8.030534351145038,-117.25190839694656
-0.2135009765625,0.450439453125,0.5185546875,78.3969465648855,13.435114503816793,-122.25190839694656
-0.5040283203125,0.71826171875,0.4376220703125,-6.251908396946565,-33.62595419847328,-147.73282442748092
-0.791259765625,1.0418701171875,0.6578369140625,11.389312977099237,36.47328244274809,-7.519083969465649
-0.5848388671875,0.8319091796875,0.6141357421875,-24.66412213740458,-16.6793893129771,50.79389312977099
-0.3934326171875,0.64599609375,0.5751953125,-28.69465648854962,1.5725190839694656,92.59541984732824
-0.2381591796875,0.5321044921875,0.583984375,-38.541984732824424,0.4732824427480916,107.54198473282443
-0.167724609375,0.47021484375,0.6324462890625,-70.07633587786259,5.145038167938932,101.89312977099236
0.0074462890625,0.1693115234375,0.828369140625,-61.083969465648856,9.83969465648855,106.7557251908397
0.0850830078125,0.095703125,0.8345947265625,-61.717557251908396,15.465648854961833,94.38167938931298
0.2923583984375,-0.154296875,1.0025634765625,-49.00763358778626,15.893129770992367,73.02290076335878
0.4794921875,-0.3865966796875,1.1080322265625,-12.954198473282442,-13.732824427480915,-5.748091603053435
0.2939453125,-0.156494140625,1.088623046875,32.7557251908397,-3.786259541984733,-64.23664122137404
0.095947265625,-0.00830078125,0.8499755859375,55.458015267175576,-7.854961832061068,-103.85496183206106
-0.0018310546875,0.0667724609375,0.8289794921875,66.93129770992367,-17.801526717557252,-129.9083969465649
-0.1322021484375,0.2696533203125,0.41015625,5.282442748091603,-33.267175572519086,-151.2824427480916
-0.526123046875,0.58642578125,0.5618896484375,14.419847328244275,57.083969465648856,-139.24427480916032
-0.8551025390625,0.86474609375,1.03125,34.3587786259542,43.0763358778626,-45.76335877862596
-0.7059326171875,0.8602294921875,0.7332763671875,-0.20610687022900764,-23.68702290076336,47.38931297709924
-0.3927001953125,0.5845947265625,0.6033935546875,-23.87786259541985,-15.992366412213741,88.74809160305344
-0.240966796875,0.486328125,0.65478515625,-48.29770992366412,-20.34351145038168,98.21374045801527
-0.08837890625,0.3477783203125,0.650146484375,-53.83969465648855,-10.83206106870229,108.18320610687023
-0.0087890625,0.175048828125,0.758056640625,-54.213740458015266,14.297709923664122,116.54198473282443
-0.041015625,0.114013671875,0.7496337890625,-71.45801526717557,5.66412213740458,107.89312977099236
0.159912109375,-0.2796630859375,0.946533203125,-54.56488549618321,33.717557251908396,114.79389312977099
0.4588623046875,-0.750732421875,1.2379150390625,-23.610687022900763,1.5801526717557253,24.83969465648855
0.2276611328125,-0.3897705078125,1.0482177734375,35.89312977099237,-10.816793893129772,-58.587786259541986
0.02587890625,-0.028564453125,0.8861083984375,18.03053435114504,-31.328244274809162,-71.61832061068702
0.1048583984375,-0.0611572265625,0.8092041015625,57.29770992366412,-14.068702290076336,-108.06106870229007
-0.0430908203125,0.18896484375,0.8148193359375,66.00763358778626,-4.343511450381679,-113.2442748091603
-0.082275390625,0.3966064453125,0.601806640625,42.98473282442748,-8.312977099236642,-118.2442748091603
-0.2415771484375,0.6080322265625,0.609619140625,8.16793893129771,-22.17557251908397,-120.34351145038168
-0.443115234375,1.0382080078125,0.7359619140625,24.106870229007633,29.229007633587788,-2.854961832061069
-0.3258056640625,0.8162841796875,0.70849609375,-30.557251908396946,-4.145038167938932,46.030534351145036
-0.15185546875,0.5426025390625,0.68505859375,-31.885496183206108,11.435114503816793,72.45038167938931
-0.13330078125,0.5018310546875,0.69384765625,-23.129770992366414,14.473282442748092,84.17557251908397
-0.1275634765625,0.423583984375,0.70166015625,-56.6412213740458,3.1908396946564888,84.34351145038168
0.0311279296875,0.069580078125,0.8642578125,-52.54961832061068,21.83206106870229,104.37404580152672
0.0771484375,0.0130615234375,0.9237060546875,-39.099236641221374,15.251908396946565,64.03053435114504
0.2978515625,-0.26953125,1.1510009765625,-42.56488549618321,12.396946564885496,50.45038167938932
0.3564453125,-0.3704833984375,1.16357421875,4.908396946564886,-6.3816793893129775,-29.267175572519083
0.1361083984375,-0.10205078125,1.060302734375,42.61832061068702,-23.709923664122137,-70.68702290076335
0.090087890625,0.085693359375,0.935791015625,59.74045801526717,-37.06106870229008,-98.36641221374046
0.029052734375,0.2479248046875,0.6334228515625,58.06106870229008,-33.3587786259542,-105.87786259541984
-0.058837890625,0.491943359375,0.572998046875,48.954198473282446,-9.053435114503817,-97.30534351145039
-0.20556640625,0.6981201171875,0.5196533203125,35.770992366412216,-6.770992366412214,-95.8854961832061
-0.36279296875,0.945068359375,0.5455322265625,6.221374045801527,16.419847328244273,-41.97709923664122
-0.43115234375,0.921630859375,0.6553955078125,-19.251908396946565,-4.595419847328245,14.351145038167939
-0.4185791015625,0.85888671875,0.6875,-33.85496183206107,-4.404580152671755,83.14503816793894
-0.1923828125,0.5518798828125,0.57470703125,-49.88549618320611,1.5877862595419847,120.04580152671755
0.0950927734375,0.1669921875,0.78955078125,-41.97709923664122,29.14503816793893,115.34351145038168
0.041015625,0.162841796875,0.710205078125,-58.36641221374046,3.8091603053435112,86.78625954198473
0.1610107421875,0.045166015625,0.8531494140625,-54.152671755725194,32.274809160305345,80.35114503816794
0.40966796875,-0.3538818359375,1.267822265625,-34.274809160305345,20.412213740458014,35.25190839694657
0.3013916015625,-0.285400390625,1.1795654296875,22.16793893129771,-13.687022900763358,-43.847328244274806
0.1781005859375,-0.0445556640625,0.9007568359375,60.31297709923664,-21.96946564885496,-80.45801526717557
0.2286376953125,-0.0430908203125,0.8641357421875,55.717557251908396,-53.9236641221374,-128.3969465648855
-0.0927734375,0.280517578125,0.6390380859375,77.06106870229007,-6.1603053435114505,-135.45801526717557
-0.3397216796875,0.5743408203125,0.5274658203125,-10.51908396946565,-76.91603053435115,-175.18320610687022
-0.59033203125,1.0382080078125,0.4813232421875,17.549618320610687,39.70229007633588,-72.8854961832061
-0.6566162109375,0.9600830078125,0.7393798828125,-14.366412213740459,9.98473282442748,16.580152671755727
-0.426025390625,0.7381591796875,0.69140625,-21.045801526717558,-8.01526717557252,68.63358778625954
-0.2412109375,0.606689453125,0.6309814453125,-26.404580152671755,5.305343511450381,99.32824427480917
-0.1243896484375,0.4927978515625,0.619384765625,-47.19083969465649,0.2900763358778626,109.80152671755725
0.0238037109375,0.26904296875,0.6729736328125,-57.16030534351145,14.86259541984733,116.80152671755725
0.087646484375,0.0799560546875,0.7535400390625,-73.50381679389314,7.641221374045801,112.45038167938931
0.2353515625,-0.19580078125,0.8997802734375,-79.90076335877863,16.389312977099237,92.61832061068702
0.453125,-0.5950927734375,1.27294921875,-29.015267175572518,12.213740458015268,27.603053435114504
0.327392578125,-0.403564453125,1.1947021484375,39.343511450381676,-3.145038167938931,-48.44274809160305
0.1431884765625,-0.109130859375,0.9530029296875,74.50381679389314,-14.977099236641221,-72.14503816793894
0.130615234375,0.03564453125,0.7119140625,74.5114503816794,-22.419847328244273,-109.63358778625954
0.0693359375,0.172119140625,0.5638427734375,35.36641221374046,-35.6793893129771,-133.01526717557252
-0.1605224609375,0.427001953125,0.60302734375,71.94656488549619,35.63358778625954,-121.22900763358778
-0.592041015625,0.9619140625,0.546875,38.54961832061068,4.687022900763359,-106.34351145038168
-0.6292724609375,1.08740234375,0.51953125,-21.38167938931298,-1.5725190839694656,9.816793893129772
-0.3828125,0.7384033203125,0.609619140625,-48.58015267175573,-11.549618320610687,69.32824427480917
-0.290283203125,0.58642578125,0.712158203125,-46.770992366412216,-4.900763358778626,106.68702290076335
-0.1690673828125,0.476806640625,0.6312255859375,-45.87022900763359,-5.572519083969466,128.7175572519084
-0.0487060546875,0.2454833984375,0.6314697265625,-73.27480916030534,-3.366412213740458,129.31297709923663
0.066650390625,-0.115966796875,0.78076171875,-78.16793893129771,13.603053435114504,133.1908396946565
0.2640380859375,-0.4747314453125,1.010986328125,-66.66412213740458,22.702290076335878,94.59541984732824
0.5172119140625,-0.856689453125,1.2515869140625,-24.106870229007633,-24.328244274809162,-15.351145038167939
0.2730712890625,-0.417236328125,1.0621337890625,29.12213740458015,-18.091603053435115,-75.90076335877863
0.104736328125,-0.0369873046875,0.873779296875,16.946564885496183,-31.03053435114504,-67.6793893129771
0.281005859375,-0.080810546875,0.7127685546875,42.099236641221374,-1.1984732824427482,-83.09160305343511
0.156005859375,0.0899658203125,0.772705078125,63.62595419847328,26.282442748091604,-97.89312977099236
-0.017578125,0.21875,0.726318359375,54.31297709923664,17.580152671755727,-144.22137404580153
-0.2916259765625,0.802978515625,0.7138671875,58.70992366412214,-5.6106870229007635,-98.03053435114504
-0.420166015625,1.0115966796875,0.6793212890625,12.732824427480915,-2.4122137404580153,-13.725190839694656
-0.2801513671875,0.8023681640625,0.7073974609375,-22.137404580152673,-2.7022900763358777,50.93129770992366
-0.1834716796875,0.6160888671875,0.7091064453125,-35.534351145038165,-0.6412213740458015,85.22900763358778
-0.0614013671875,0.4169921875,0.733642578125,-52.87022900763359,-3.9389312977099236,101.36641221374046
0.10791015625,0.167724609375,0.766845703125,-49.900763358778626,2.519083969465649,101.41221374045801
0.163330078125,0.0980224609375,0.7122802734375,-52.63358778625954,-7.00763358778626,80.26717557251908
0.25244140625,-0.11572265625,0.9298095703125,-46.51145038167939,13.412213740458014,80.0381679389313
0.3927001953125,-0.425537109375,1.14599609375,-28.549618320610687,16.236641221374047,33.770992366412216
0.3758544921875,-0.4097900390625,1.1370849609375,19.748091603053435,-8.01526717557252,-32.725190839694655
0.2457275390625,-0.1754150390625,0.9725341796875,47.458015267175576,-30.893129770992367,-74.66412213740458
0.153076171875,0.0784912109375,0.814208984375,43.19083969465649,-18.14503816793893,-104.87022900763358
0.1422119140625,0.1617431640625,0.6815185546875,39.3206106870229,-32.35114503816794,-123.55725190839695
0.024169921875,0.3216552734375,0.6947021484375,46.58015267175573,-3.648854961832061,-109.25954198473282
-0.3011474609375,0.68701171875,0.623779296875,68.80152671755725,14.206106870229007,-106.30534351145039
-0.373779296875,0.9591064453125,0.513916015625,8.51908396946565,-4.396946564885496,-78.3587786259542
-0.4122314453125,0.994140625,0.718017578125,-10.488549618320612,1.748091603053435,16.396946564885496
-0.2689208984375,0.7965087890625,0.6475830078125,-26.72519083969466,2.8625954198473282,70.22900763358778
-0.1260986328125,0.58984375,0.6260986328125,-39.725190839694655,9.106870229007633,107.23664122137404
0.01171875,0.3961181640625,0.6181640625,-61.48854961832061,14.129770992366412,114.06870229007633
0.0406494140625,0.197509765625,0.726318359375,-45.74809160305343,34.80916030534351,98.69465648854961
0.0921630859375,0.0802001953125,0.8594970703125,-67.80152671755725,5.67175572519084,77.91603053435115
0.33544921875,-0.2559814453125,1.1441650390625,-43.274809160305345,0.22137404580152673,37.12213740458015
0.3521728515625,-0.2642822265625,1.1136474609375,11.290076335877863,-4.458015267175573,-36.89312977099237
0.1888427734375,-0.0706787109375,1.0526123046875,59.35114503816794,10.404580152671755,-63.3587786259542
0.060302734375,0.10986328125,0.8052978515625,76.78625954198473,-24.091603053435115,-107.80916030534351
-0.0654296875,0.3084716796875,0.5799560546875,74.00763358778626,-17.091603053435115,-124.50381679389314
-0.3165283203125,0.6058349609375,0.5048828125,52.44274809160305,44.43511450381679,-114.73282442748092
-0.4560546875,0.557861328125,0.700439453125,38.12213740458015,12.969465648854962,-103.76335877862596
-0.67138671875,0.85205078125,0.5074462890625,10.549618320610687,-7.870229007633588,-35.63358778625954
-0.6273193359375,0.83984375,0.5006103515625,-13.404580152671755,2.7786259541984735,16.0381679389313
-0.5504150390625,0.7547607421875,0.5386962890625,-43.02290076335878,-19.977099236641223,73.85496183206106
-0.35302734375,0.557861328125,0.5919189453125,-59.94656488549618,-20.51145038167939,106.61068702290076
-0.172119140625,0.405517578125,0.6033935546875,-61.76335877862596,21.053435114503817,121.10687022900764
-0.16748046875,0.344970703125,0.6265869140625,-93.31297709923665,-16.412213740458014,111.00763358778626
-0.0770263671875,0.098388671875,0.7960205078125,-81.01526717557252,12.312977099236642,105.68702290076335
0.3765869140625,-0.513671875,1.159423828125,-72.72519083969466,3.122137404580153,80.92366412213741
0.4337158203125,-0.4737548828125,1.1263427734375,-3.16793893129771,-1.6793893129770991,-17.480916030534353
0.1484375,-0.1746826171875,1.06640625,48.412213740458014,-1.3511450381679388,-61.7557251908397
0.08203125,-0.001708984375,0.8408203125,62.36641221374046,-21.17557251908397,-84.62595419847328
0.0272216796875,0.152099609375,0.7283935546875,59.06106870229008,-33.18320610687023,-103.8473282442748
-0.0487060546875,0.2669677734375,0.6318359375,76.55725190839695,2.854961832061069,-115.30534351145039
-0.34130859375,0.55078125,0.4979248046875,27.3206106870229,-17.267175572519083,-120.70229007633588
-0.5653076171875,0.8970947265625,0.6468505859375,-25.572519083969464,-12.49618320610687,-18.709923664122137
-0.5675048828125,0.8968505859375,0.7359619140625,6.435114503816794,1.5954198473282444,8.931297709923664
-0.47216796875,0.7984619140625,0.622314453125,-30.946564885496183,-13.045801526717558,66.7175572519084
-0.3331298828125,0.6121826171875,0.6019287109375,-36.18320610687023,-3.2290076335877864,123.2442748091603
-0.142333984375,0.4188232421875,0.6431884765625,-47.29007633587786,6.557251908396947,118.20610687022901
-0.0826416015625,0.275146484375,0.680419921875,-76.90839694656489,8.49618320610687,114.06106870229007
0.1263427734375,-0.0721435546875,0.90283203125,-51.51145038167939,23.931297709923665,118.25190839694656
0.330810546875,-0.451904296875,1.0509033203125,-56.030534351145036,23.328244274809162,70.9618320610687
0.377685546875,-0.572265625,1.2288818359375,1.2213740458015268,-10.099236641221374,-18.244274809160306
0.1700439453125,-0.195556640625,1.019287109375,32.49618320610687,-24.84732824427481,-67.42748091603053
0.0587158203125,0.11572265625,0.884521484375,67.9618320610687,-17.519083969465647,-60.35114503816794
0.128662109375,0.1212158203125,0.646484375,42.99236641221374,-35.42748091603053,-97.09160305343511
0.0987548828125,0.288330078125,0.6671142578125,37.52671755725191,-30.022900763358777,-122.81679389312977
-0.084228515625,0.5205078125,0.6904296875,24.99236641221374,-12.541984732824428,-109.06870229007633
-0.182861328125,0.79296875,0.5694580078125,17.282442748091604,-11.412213740458014,-64.50381679389314
-0.2237548828125,0.8665771484375,0.6839599609375,1.2595419847328244,-1.6259541984732824,-21.30534351145038
-0.2471923828125,0.83203125,0.7235107421875,-29.091603053435115,-8.099236641221374,46.69465648854962
-0.1160888671875,0.59619140625,0.71337890625,-33.587786259541986,-12.908396946564885,92.0
-0.0118408203125,0.4515380859375,0.6239013671875,-44.51145038167939,-10.732824427480915,115.14503816793894
0.1763916015625,0.15966796875,0.6849365234375,-65.69465648854961,2.1603053435114505,118.1145038167939
0.19921875,-0.092041015625,0.775146484375,-69.7175572519084,10.877862595419847,109.68702290076335
0.5240478515625,-0.633056640625,0.9688720703125,-60.48854961832061,0.7251908396946565,69.67175572519083
0.5531005859375,-0.670654296875,1.0557861328125,3.9389312977099236,19.15267175572519,-7.534351145038168
0.35498046875,-0.37744140625,0.9552001953125,36.85496183206107,0.33587786259541985,-70.08396946564885
0.235595703125,-0.083740234375,0.7628173828125,55.70229007633588,-1.1450381679389312,-87.7557251908397
0.1510009765625,0.096923828125,0.7994384765625,59.19083969465649,19.641221374045802,-101.3206106870229
0.0313720703125,0.2803955078125,0.7437744140625,26.03053435114504,-37.396946564885496,-124.41221374045801
0.0843505859375,0.47412109375,0.6258544921875,-19.236641221374047,-29.114503816793892,-125.83969465648855
-0.099365234375,0.4476318359375,0.8824462890625,5.977099236641221,9.679389312977099,-113.06106870229007
-0.2823486328125,0.729736328125,0.8709716796875,26.801526717557252,0.7938931297709924,-24.045801526717558
-0.31591796875,0.82177734375,0.679443359375,6.312977099236641,19.198473282442748,53.847328244274806
-0.186767578125,0.6158447265625,0.726318359375,-7.320610687022901,24.106870229007633,95.34351145038168
-0.0732421875,0.4593505859375,0.7379150390625,-39.16793893129771,-8.893129770992367,99.68702290076335
0.0491943359375,0.31982421875,0.7388916015625,-35.603053435114504,10.129770992366412,112.70992366412214
0.1064453125,0.2037353515625,0.7265625,-53.99236641221374,2.114503816793893,105.34351145038168
0.18212890625,0.0072021484375,0.727783203125,-82.90839694656489,0.2748091603053435,93.1526717557252
0.4930419921875,-0.51708984375,1.1597900390625,-54.05343511450382,0.9770992366412213,47.81679389312977
0.4615478515625,-0.513427734375,1.122802734375,11.992366412213741,-9.374045801526718,-34.61068702290076
0.2579345703125,-0.1494140625,0.8997802734375,50.030534351145036,-11.664122137404581,-70.46564885496183
0.185791015625,0.0322265625,0.7705078125,55.13740458015267,-8.893129770992367,-93.18320610687023
0.110107421875,0.23583984375,0.72412109375,37.458015267175576,-10.374045801526718,-104.58015267175573
-0.0440673828125,0.4676513671875,0.626708984375,23.87786259541985,9.877862595419847,-100.53435114503817
-0.2001953125,0.56982421875,0.777587890625,30.68702290076336,14.82442748091603,-96.18320610687023
-0.27734375,0.7265625,0.743408203125,15.404580152671755,13.16030534351145,-48.17557251908397
-0.4156494140625,0.8831787109375,0.7357177734375,0.061068702290076333,5.4961832061068705,10.19083969465649
-0.358154296875,0.8238525390625,0.6619873046875,-25.633587786259543,-5.404580152671755,67.63358778625954
-0.1759033203125,0.529296875,0.656005859375,-43.52671755725191,-6.8320610687022905,107.56488549618321
-0.05322265625,0.37060546875,0.6573486328125,-68.18320610687023,-17.15267175572519,107.90839694656489
0.1439208984375,0.0189208984375,0.7498779296875,-75.1526717557252,-2.2595419847328246,110.41221374045801
0.22998046875,-0.1573486328125,0.8529052734375,-85.55725190839695,0.8854961832061069,90.3206106870229
0.5770263671875,-0.6705322265625,1.1763916015625,-22.297709923664122,3.0916030534351147,16.33587786259542
0.3023681640625,-0.3052978515625,1.10546875,32.282442748091604,-9.717557251908397,-50.587786259541986
0.237060546875,-0.08544921875,0.8773193359375,57.19083969465649,-15.48091603053435,-69.08396946564885
0.19873046875,0.0911865234375,0.6839599609375,24.770992366412212,-22.786259541984734,-92.87022900763358
0.10986328125,0.169189453125,0.7713623046875,41.0763358778626,8.16030534351145,-111.48091603053435
-0.1109619140625,0.4168701171875,0.7203369140625,51.29007633587786,10.526717557251908,-123.29770992366412
-0.4013671875,0.8145751953125,0.559326171875,10.290076335877863,-14.442748091603054,-121.36641221374046
-0.510986328125,1.0704345703125,0.7603759765625,-1.015267175572519,19.595419847328245,31.900763358778626
-0.24951171875,0.6365966796875,0.77978515625,-25.129770992366414,2.1068702290076335,80.37404580152672
-0.084228515625,0.461181640625,0.7322998046875,-29.022900763358777,-3.1603053435114505,101.56488549618321
0.051025390625,0.3729248046875,0.6700439453125,-55.36641221374046,-14.435114503816793,95.22900763358778
0.0797119140625,0.2408447265625,0.7144775390625,-63.79389312977099,6.488549618320611,96.70992366412214
0.217529296875,-0.10546875,0.865966796875,-47.42748091603053,26.259541984732824,90.01526717557252
0.2308349609375,-0.2078857421875,0.97265625,-48.50381679389313,23.137404580152673,77.01526717557252
0.3919677734375,-0.4862060546875,1.095947265625,-28.931297709923665,-8.587786259541986,11.091603053435115
0.3472900390625,-0.396240234375,1.051513671875,25.65648854961832,-12.022900763358779,-40.98473282442748
0.24365234375,-0.192138671875,0.9068603515625,61.595419847328245,-9.305343511450381,-70.3587786259542
0.2099609375,-0.04931640625,0.7763671875,78.52671755725191,-7.5038167938931295,-82.65648854961832
0.011474609375,0.2698974609375,0.6341552734375,74.18320610687023,11.320610687022901,-118.07633587786259
-0.1510009765625,0.475830078125,0.690185546875,16.19083969465649,-36.221374045801525,-121.09923664122137
-0.2451171875,0.7882080078125,0.6590576171875,24.198473282442748,0.9541984732824428,-86.56488549618321
